[{"instructions":"Instructions: Please turn on your audio now. This experiment will consist of a training/practice phase, and then a set of testing trials. On each trial, you will be presented with a set of four consonants. Verbally rehearse these consonants during the remainder of the trial.<br /><br /> Next, you will be presented with a cue (a pinwheel), which will either be rotating or still. If the pinwheel is rotating, you will also hear a sound of rotation. If the pinwheel is rotating, try to remember the speed at which it is rotating (the total amount it rotates is irrelevant). <br /><br />Next, you will be shown an object consisting of four colored bars in the shape of a +. Then, the object will be hidden (pretend that a curtain drops between you and the image), and there will be a delay period. If the pinwheel was rotating, you will hear the rotation sound, and try to mentally rotate the object for the time that it is hidden, at the same rate that the pinwheel rotate d. <br / ><br />At an unpredictable point, the curtain will be raised, and the object will be revealed. Your task is to determine whether the object shown is the same as the original one (none of the bars of the + have been switched), and if it has rotated the correct amount. If the pinwheel was not rotating, you do not have to perform the mental rotation, and you only have to check if the object is the same, it will not have been rotated. <br /><br />You will respond by pressing 'e' if the object shown is incorrect and 'i' if the object shown is correct. If you respond incorrectly, you will hear a buzzer. You will be tested at the end of some (randomly chosen) trials on your memory of the consonants you were shown at the beginning. If you do not recall the consonants correctly, you will hear a buzzer, and be forced to wait for a few seconds before continuing with the experiment. <br /><br />This can all sound a little intimidating, but once you go through the training, it will seem  easier.< br /><br />Click continue when you are ready to begin the training phase of the experiment.","rt":144779,"trial_type":"instructions","trial_index":0,"trial_index_global":1,"time_elapsed":158377,"internal_chunk_id":"0-0"},{"prompt":"Press E if the figure is incorrect, and press I if the figure is correct.","correct_response":"correct","response":73,"trial_time":15013,"rt":15013,"response_choices":[69,73],"response_mappings":["incorrect","correct"],"rotation_speed":0.00087,"rotation_time":800,"object_specifier":[0,1,2,3],"initial_angle":0.5,"final_object_specifier":[0,1,2,3],"final_angle":1.196,"verb_supp_check":false,"consonant_correct_count":0,"verb_supp_consonants":[["b"],["p"],["t"],["c"]],"experiment_trial_type":"correct","practice_trial":true,"trial_type":"rotation","trial_index":0,"trial_index_global":2,"time_elapsed":173893,"internal_chunk_id":"0-0.2-0"},{"feedback":"Correct! The object was rotated correctly, and none of the bars changed positions.","rt":4585,"trial_type":"fee dback","trial_index":0,"trial_index_global":3,"time_elapsed":178979,"internal_chunk_id":"0-0.2-0"},{"prompt":"Press E if the figure is incorrect, and press I if the figure is correct.","correct_response":"incorrect","response":69,"trial_time":9075,"rt":9075,"response_choices":[69,73],"response_mappings":["incorrect","correct"],"rotation_speed":0,"rotation_time":1600,"object_specifier":[1,3,0,2],"initial_angle":0.1,"final_object_specifier":[2,3,0,1],"final_angle":0.1,"verb_supp_check":false,"consonant_correct_count":0,"verb_supp_consonants":[["w"],["q"],["m"],["h"]],"experiment_trial_type":"swap","practice_trial":true,"trial_type":"rotation","trial_index":0,"trial_index_global":4,"time_elapsed":188557,"internal_chunk_id":"0-0.2-0"},{"feedback":"Correct! The bars changed positions.","rt":23921,"trial_type":"feedback","trial_index":0,"trial_index_global":5,"time_elapsed":212979,"internal_chunk_id":"0-0.2-0"},{"prompt":"Press E if the figure is incorrect, and press I if the figu re is co rrect.","correct_response":"incorrect","response":69,"trial_time":16042,"rt":16042,"response_choices":[69,73],"response_mappings":["incorrect","correct"],"rotation_speed":-0.00087,"rotation_time":2400,"object_specifier":[1,2,0,3],"initial_angle":0.6,"final_object_specifier":[1,2,0,3],"final_angle":-0.7919999999999999,"verb_supp_check":true,"consonant_correct_count":4,"verb_supp_consonants":[["s"],["r"],["j"],["x"]],"experiment_trial_type":"rotate","practice_trial":true,"trial_type":"rotation","trial_index":0,"trial_index_global":6,"time_elapsed":229522,"internal_chunk_id":"0-0.2-0"},{"feedback":"Correct! The object did not rotate the correct amount.","rt":4290,"trial_type":"feedback","trial_index":0,"trial_index_global":7,"time_elapsed":234312,"internal_chunk_id":"0-0.2-0"},{"prompt":"Press E if the figure is incorrect, and press I if the figure is correct.","correct_response":"incorrect","response":69,"trial_time":11292,"rt":11292,"response_choices":[69,73],"response_mappings":["in correct","correct"],"rotation_speed":0.00087,"rotation_time":800,"object_specifier":[1,2,0,3],"initial_angle":0,"final_object_specifier":[0,2,1,3],"final_angle":0.696,"verb_supp_check":false,"consonant_correct_count":0,"verb_supp_consonants":[["x"],["z"],["s"],["k"]],"experiment_trial_type":"swap","practice_trial":true,"trial_type":"rotation","trial_index":0,"trial_index_global":8,"time_elapsed":246105,"internal_chunk_id":"0-0.2-0"},{"feedback":"Correct! The bars changed positions.","rt":3571,"trial_type":"feedback","trial_index":0,"trial_index_global":9,"time_elapsed":250176,"internal_chunk_id":"0-0.2-0"},{"prompt":"Press E if the figure is incorrect, and press I if the figure is correct.","correct_response":"correct","response":73,"trial_time":16259,"rt":16259,"response_choices":[69,73],"response_mappings":["incorrect","correct"],"rotation_speed":0,"rotation_time":2400,"object_specifier":[3,2,1,0],"initial_angle":0.7,"final_object_specifier":[3,2,1,0],"final_angle":0.7,"verb_supp_check":true,"consonant_correct_count":4,"verb_supp_consonants":[["c"],["l"],["p"],["b"]],"experiment_trial_type":"correct","practice_trial":true,"trial_type":"rotation","trial_index":0,"trial_index_global":10,"time_elapsed":266936,"internal_chunk_id":"0-0.2-0"},{"feedback":"Correct! The bars on the object did not change positions.","rt":3093,"trial_type":"feedback","trial_index":0,"trial_index_global":11,"time_elapsed":270529,"internal_chunk_id":"0-0.2-0"},{"prompt":"Press E if the figure is incorrect, and press I if the figure is correct.","correct_response":"incorrect","response":69,"trial_time":10259,"rt":10259,"response_choices":[69,73],"response_mappings":["incorrect","correct"],"rotation_speed":-0.00087,"rotation_time":2400,"object_specifier":[1,2,3,0],"initial_angle":0.2,"final_object_specifier":[1,2,3,0],"final_angle":-0.49599999999999994,"verb_supp_check":false,"consonant_correct_count":0,"verb_supp_consonants":[["g"],["k"],["y"],["s"]],"experiment_trial_type":"rota te","practice_trial":true,"trial_type":"rotation","trial_index":0,"trial_index_global":12,"time_elapsed":281289,"internal_chunk_id":"0-0.2-0"},{"feedback":"Thats right! The object was rotated an incorrect amount.","rt":2547,"trial_type":"feedback","trial_index":0,"trial_index_global":13,"time_elapsed":284336,"internal_chunk_id":"0-0.2-0"},{"instructions":"Great! We'll give you a few more trials to practice before you start the experiment. Click 'Continue' to begin the practice section.","rt":3500,"trial_type":"instructions","trial_index":0,"trial_index_global":14,"time_elapsed":288337,"internal_chunk_id":"0-0"},{"prompt":"Press E if the figure is incorrect, and press I if the figure is correct.","correct_response":"incorrect","response":69,"trial_time":12583,"rt":12583,"response_choices":[69,73],"response_mappings":["incorrect","correct"],"rotation_speed":0.00087,"rotation_time":800,"object_specifier":[1,0,2,3],"initial_angle":0.55,"final_object_specifier":[3,0,2,1],"final_angle":1.246,"verb_supp_check":false,"consonant_correct_count":0,"verb_supp_consonants":[["z"],["m"],["c"],["v"]],"experiment_trial_type":"swap","practice_trial":true,"trial_type":"rotation","trial_index":0,"trial_index_global":15,"time_elapsed":301421,"internal_chunk_id":"0-0.4-0"},{"prompt":"Press E if the figure is incorrect, and press I if the figure is correct.","correct_response":"correct","response":69,"trial_time":13524,"rt":13524,"response_choices":[69,73],"response_mappings":["incorrect","correct"],"rotation_speed":-0.00087,"rotation_time":2400,"object_specifier":[0,3,1,2],"initial_angle":0.11,"final_object_specifier":[0,3,1,2],"final_angle":-1.978,"verb_supp_check":false,"consonant_correct_count":0,"verb_supp_consonants":[["f"],["j"],["b"],["h"]],"experiment_trial_type":"correct","practice_trial":true,"trial_type":"rotation","trial_index":0,"trial_index_global":16,"time_elapsed":315445,"internal_chunk_id":"0-0.4-0"},{"prompt":"Press E if the figure is incorrect, and press I if the  figure  is correct.","correct_response":"incorrect","response":69,"trial_time":19431,"rt":19431,"response_choices":[69,73],"response_mappings":["incorrect","correct"],"rotation_speed":-0.00087,"rotation_time":1600,"object_specifier":[0,3,1,2],"initial_angle":0.4,"final_object_specifier":[0,3,1,2],"final_angle":-1.6880000000000002,"verb_supp_check":true,"consonant_correct_count":4,"verb_supp_consonants":[["m"],["x"],["q"],["r"]],"experiment_trial_type":"rotate","practice_trial":true,"trial_type":"rotation","trial_index":0,"trial_index_global":17,"time_elapsed":335380,"internal_chunk_id":"0-0.4-0"},{"prompt":"Press E if the figure is incorrect, and press I if the figure is correct.","correct_response":"correct","response":73,"trial_time":9300,"rt":9300,"response_choices":[69,73],"response_mappings":["incorrect","correct"],"rotation_speed":0,"rotation_time":2400,"object_specifier":[3,0,2,1],"initial_angle":-0.1,"final_object_specifier":[3,0,2,1],"final_angle":-0.1,"verb_supp_check":false,"consonant_correct_count":0,"verb_supp_consonants":[["f"],["k"],["c"],["n"]],"experiment_trial_type":"correct","practice_trial":true,"trial_type":"rotation","trial_index":0,"trial_index_global":18,"time_elapsed":345181,"internal_chunk_id":"0-0.4-0"},{"prompt":"Press E if the figure is incorrect, and press I if the figure is correct.","correct_response":"correct","response":69,"trial_time":13817,"rt":13817,"response_choices":[69,73],"response_mappings":["incorrect","correct"],"rotation_speed":0.00087,"rotation_time":800,"object_specifier":[2,0,3,1],"initial_angle":0.23,"final_object_specifier":[2,0,3,1],"final_angle":0.9259999999999999,"verb_supp_check":false,"consonant_correct_count":0,"verb_supp_consonants":[["y"],["z"],["p"],["q"]],"experiment_trial_type":"correct","practice_trial":true,"trial_type":"rotation","trial_index":0,"trial_index_global":19,"time_elapsed":359499,"internal_chunk_id":"0-0.4-0"},{"prompt":"Press E if the figure is incorrect, and press I if the figure is c orrect.","correct_response":"incorrect","response":73,"trial_time":10594,"rt":10594,"response_choices":[69,73],"response_mappings":["incorrect","correct"],"rotation_speed":0.00087,"rotation_time":800,"object_specifier":[1,2,3,0],"initial_angle":0.62,"final_object_specifier":[1,2,3,0],"final_angle":2.012,"verb_supp_check":false,"consonant_correct_count":0,"verb_supp_consonants":[["z"],["p"],["g"],["m"]],"experiment_trial_type":"rotate","practice_trial":true,"trial_type":"rotation","trial_index":0,"trial_index_global":20,"time_elapsed":370594,"internal_chunk_id":"0-0.4-0"},{"prompt":"Press E if the figure is incorrect, and press I if the figure is correct.","correct_response":"incorrect","response":69,"trial_time":8859,"rt":8859,"response_choices":[69,73],"response_mappings":["incorrect","correct"],"rotation_speed":0,"rotation_time":1600,"object_specifier":[0,2,3,1],"initial_angle":-0.22,"final_object_specifier":[0,1,3,2],"final_angle":-0.22,"verb_supp_check":false,"consonant_correct_count":0,"verb_supp_consonants":[["q"],["h"],["y"],["w"]],"experiment_trial_type":"swap","practice_trial":true,"trial_type":"rotation","trial_index":0,"trial_index_global":21,"time_elapsed":379954,"internal_chunk_id":"0-0.4-0"},{"prompt":"Press E if the figure is incorrect, and press I if the figure is correct.","correct_response":"correct","response":69,"trial_time":20799,"rt":20799,"response_choices":[69,73],"response_mappings":["incorrect","correct"],"rotation_speed":0.00087,"rotation_time":2400,"object_specifier":[1,3,0,2],"initial_angle":-0.5,"final_object_specifier":[1,3,0,2],"final_angle":1.588,"verb_supp_check":true,"consonant_correct_count":4,"verb_supp_consonants":[["n"],["s"],["c"],["x"]],"experiment_trial_type":"correct","practice_trial":true,"trial_type":"rotation","trial_index":0,"trial_index_global":22,"time_elapsed":401254,"internal_chunk_id":"0-0.4-0"},{"instructions":"You've completed the practice section! Click 'Continue' to proceed.","rt":15484,"trial_type":"inst ructions ","trial_index":0,"trial_index_global":23,"time_elapsed":417238,"internal_chunk_id":"0-0"},{"prompt":"Press E if the figure is incorrect, and press I if the figure is correct.","correct_response":"correct","response":69,"trial_time":16434,"rt":16434,"response_choices":[69,73],"response_mappings":["incorrect","correct"],"rotation_speed":-0.00087,"rotation_time":1600,"object_specifier":[[2],[3],[1],[0]],"initial_angle":1.3635539198710824,"final_object_specifier":[[2],[3],[1],[0]],"final_angle":-0.028446080128917473,"verb_supp_check":true,"consonant_correct_count":4,"verb_supp_consonants":[["p"],["j"],["f"],["y"]],"experiment_trial_type":"correct","practice_trial":false,"trial_type":"rotation","trial_index":0,"trial_index_global":24,"time_elapsed":434173,"internal_chunk_id":"0-0.6-0"},{"prompt":"Press E if the figure is incorrect, and press I if the figure is correct.","correct_response":"incorrect","response":73,"trial_time":9293,"rt":9293,"response_choices":[69,73],"response_mappings":["incorrect","correct"],"rotation_speed":0.00087,"rotation_time":1600,"object_specifier":[[1],[3],[0],[2]],"initial_angle":2.2644973776566872,"final_object_specifier":[[1],[3],[0],[2]],"final_angle":4.352497377656688,"verb_supp_check":false,"consonant_correct_count":0,"verb_supp_consonants":[["b"],["p"],["m"],["h"]],"experiment_trial_type":"rotate","practice_trial":false,"trial_type":"rotation","trial_index":0,"trial_index_global":25,"time_elapsed":443966,"internal_chunk_id":"0-0.6-0"},{"prompt":"Press E if the figure is incorrect, and press I if the figure is correct.","correct_response":"correct","response":73,"trial_time":10483,"rt":10483,"response_choices":[69,73],"response_mappings":["incorrect","correct"],"rotation_speed":0.00087,"rotation_time":1600,"object_specifier":[[2],[0],[1],[3]],"initial_angle":3.3927524508091933,"final_object_specifier":[[2],[0],[1],[3]],"final_angle":4.784752450809194,"verb_supp_check":false,"consonant_correct_count":0,"verb_supp_consonants":[["y"],["b"],["c"],["d"]],"experiment_trial_type":"correct","practice_trial":false,"trial_type":"rotation","trial_index":0,"trial_index_global":26,"time_elapsed":454950,"internal_chunk_id":"0-0.6-0"},{"prompt":"Press E if the figure is incorrect, and press I if the figure is correct.","correct_response":"incorrect","response":69,"trial_time":14009,"rt":14009,"response_choices":[69,73],"response_mappings":["incorrect","correct"],"rotation_speed":0,"rotation_time":2400,"object_specifier":[[2],[1],[0],[3]],"initial_angle":1.8349598492145043,"final_object_specifier":[[0],[1],[2],[3]],"final_angle":1.8349598492145043,"verb_supp_check":true,"consonant_correct_count":4,"verb_supp_consonants":[["q"],["b"],["f"],["y"]],"experiment_trial_type":"swap","practice_trial":false,"trial_type":"rotation","trial_index":0,"trial_index_global":27,"time_elapsed":469460,"internal_chunk_id":"0-0.6-0"},{"prompt":"Press E if the figure is incorrect, and press I if the figure is correct.","correct_response":"incorr ect","response":73,"trial_time":14922,"rt":14922,"response_choices":[69,73],"response_mappings":["incorrect","correct"],"rotation_speed":0.00087,"rotation_time":2400,"object_specifier":[[0],[2],[3],[1]],"initial_angle":2.0238143999245857,"final_object_specifier":[[0],[2],[3],[1]],"final_angle":3.4158143999245856,"verb_supp_check":true,"consonant_correct_count":4,"verb_supp_consonants":[["h"],["m"],["j"],["x"]],"experiment_trial_type":"rotate","practice_trial":false,"trial_type":"rotation","trial_index":0,"trial_index_global":28,"time_elapsed":484882,"internal_chunk_id":"0-0.6-0"},{"prompt":"Press E if the figure is incorrect, and press I if the figure is correct.","correct_response":"correct","response":69,"trial_time":14195,"rt":14195,"response_choices":[69,73],"response_mappings":["incorrect","correct"],"rotation_speed":0.00087,"rotation_time":1600,"object_specifier":[[0],[1],[2],[3]],"initial_angle":1.0593344979224788,"final_object_specifier":[[0],[1],[2],[3]],"final_angle":2.4513344979224785,"verb_supp_check":true,"consonant_correct_count":4,"verb_supp_consonants":[["s"],["h"],["b"],["d"]],"experiment_trial_type":"correct","practice_trial":false,"trial_type":"rotation","trial_index":0,"trial_index_global":29,"time_elapsed":499577,"internal_chunk_id":"0-0.6-0"},{"prompt":"Press E if the figure is incorrect, and press I if the figure is correct.","correct_response":"incorrect","response":73,"trial_time":12214,"rt":12214,"response_choices":[69,73],"response_mappings":["incorrect","correct"],"rotation_speed":-0.00087,"rotation_time":2400,"object_specifier":[[0],[1],[3],[2]],"initial_angle":2.23970814302842,"final_object_specifier":[[0],[1],[3],[2]],"final_angle":1.54370814302842,"verb_supp_check":false,"consonant_correct_count":0,"verb_supp_consonants":[["c"],["d"],["w"],["t"]],"experiment_trial_type":"rotate","practice_trial":false,"trial_type":"rotation","trial_index":0,"trial_index_global":30,"time_elapsed":512291,"internal_chunk_id":"0-0.6-0"},{"prompt":"P ress E if the figure is incorrect, and press I if the figure is correct.","correct_response":"correct","response":73,"trial_time":16998,"rt":16998,"response_choices":[69,73],"response_mappings":["incorrect","correct"],"rotation_speed":-0.00087,"rotation_time":2400,"object_specifier":[[1],[0],[2],[3]],"initial_angle":0.16025373422841685,"final_object_specifier":[[1],[0],[2],[3]],"final_angle":-1.9277462657715831,"verb_supp_check":false,"consonant_correct_count":0,"verb_supp_consonants":[["f"],["q"],["y"],["v"]],"experiment_trial_type":"correct","practice_trial":false,"trial_type":"rotation","trial_index":0,"trial_index_global":31,"time_elapsed":529789,"internal_chunk_id":"0-0.6-0"},{"prompt":"Press E if the figure is incorrect, and press I if the figure is correct.","correct_response":"incorrect","response":69,"trial_time":9638,"rt":9638,"response_choices":[69,73],"response_mappings":["incorrect","correct"],"rotation_speed":-0.00087,"rotation_time":1600,"object_specifier":[[2],[0],[1],[3]],"initial_angle":5.589677686272073,"final_object_specifier":[[2],[0],[1],[3]],"final_angle":4.893677686272073,"verb_supp_check":false,"consonant_correct_count":0,"verb_supp_consonants":[["l"],["z"],["r"],["x"]],"experiment_trial_type":"rotate","practice_trial":false,"trial_type":"rotation","trial_index":0,"trial_index_global":32,"time_elapsed":539928,"internal_chunk_id":"0-0.6-0"},{"prompt":"Press E if the figure is incorrect, and press I if the figure is correct.","correct_response":"incorrect","response":73,"trial_time":8587,"rt":8587,"response_choices":[69,73],"response_mappings":["incorrect","correct"],"rotation_speed":-0.00087,"rotation_time":1600,"object_specifier":[[0],[3],[2],[1]],"initial_angle":1.4420685444689187,"final_object_specifier":[[2],[3],[0],[1]],"final_angle":0.05006854446891884,"verb_supp_check":false,"consonant_correct_count":0,"verb_supp_consonants":[["n"],["r"],["d"],["b"]],"experiment_trial_type":"swap","practice_trial":false,"trial_type":"rota tion","trial_index":0,"trial_index_global":33,"time_elapsed":549016,"internal_chunk_id":"0-0.6-0"},{"prompt":"Press E if the figure is incorrect, and press I if the figure is correct.","correct_response":"correct","response":73,"trial_time":13146,"rt":13146,"response_choices":[69,73],"response_mappings":["incorrect","correct"],"rotation_speed":0.00087,"rotation_time":2400,"object_specifier":[[1],[0],[3],[2]],"initial_angle":3.5002355319795226,"final_object_specifier":[[1],[0],[3],[2]],"final_angle":5.588235531979523,"verb_supp_check":true,"consonant_correct_count":4,"verb_supp_consonants":[["f"],["k"],["l"],["m"]],"experiment_trial_type":"correct","practice_trial":false,"trial_type":"rotation","trial_index":0,"trial_index_global":34,"time_elapsed":562663,"internal_chunk_id":"0-0.6-0"},{"prompt":"Press E if the figure is incorrect, and press I if the figure is correct.","correct_response":"incorrect","response":73,"trial_time":10686,"rt":10686,"response_choices":[69,73],"response_mappings":["incorrect","correct"],"rotation_speed":-0.00087,"rotation_time":2400,"object_specifier":[[3],[2],[0],[1]],"initial_angle":1.0536233783857119,"final_object_specifier":[[1],[2],[0],[3]],"final_angle":-1.0343766216142882,"verb_supp_check":false,"consonant_correct_count":0,"verb_supp_consonants":[["p"],["s"],["m"],["w"]],"experiment_trial_type":"swap","practice_trial":false,"trial_type":"rotation","trial_index":0,"trial_index_global":35,"time_elapsed":573849,"internal_chunk_id":"0-0.6-0"},{"prompt":"Press E if the figure is incorrect, and press I if the figure is correct.","correct_response":"correct","response":73,"trial_time":14994,"rt":14994,"response_choices":[69,73],"response_mappings":["incorrect","correct"],"rotation_speed":0.00087,"rotation_time":2400,"object_specifier":[[0],[3],[1],[2]],"initial_angle":5.788118190561312,"final_object_specifier":[[0],[3],[1],[2]],"final_angle":7.8761181905613125,"verb_supp_check":true,"consonant_correct_count":4,"verb_supp_consonants":[["s"],["v"],["x"],["w"]],"experiment_trial_type":"correct","practice_trial":false,"trial_type":"rotation","trial_index":0,"trial_index_global":36,"time_elapsed":589343,"internal_chunk_id":"0-0.6-0"},{"prompt":"Press E if the figure is incorrect, and press I if the figure is correct.","correct_response":"correct","response":69,"trial_time":8185,"rt":8185,"response_choices":[69,73],"response_mappings":["incorrect","correct"],"rotation_speed":-0.00087,"rotation_time":800,"object_specifier":[[0],[3],[2],[1]],"initial_angle":5.259636725941322,"final_object_specifier":[[0],[3],[2],[1]],"final_angle":4.563636725941322,"verb_supp_check":false,"consonant_correct_count":0,"verb_supp_consonants":[["q"],["y"],["n"],["b"]],"experiment_trial_type":"correct","practice_trial":false,"trial_type":"rotation","trial_index":0,"trial_index_global":37,"time_elapsed":598028,"internal_chunk_id":"0-0.6-0"},{"prompt":"Press E if the figure is incorrect, and press I if the figure is correct.","correct_response":"corre ct","response":73,"trial_time":10403,"rt":10403,"response_choices":[69,73],"response_mappings":["incorrect","correct"],"rotation_speed":0,"rotation_time":2400,"object_specifier":[[0],[1],[2],[3]],"initial_angle":5.217220346648869,"final_object_specifier":[[0],[1],[2],[3]],"final_angle":5.217220346648869,"verb_supp_check":false,"consonant_correct_count":0,"verb_supp_consonants":[["t"],["z"],["d"],["v"]],"experiment_trial_type":"correct","practice_trial":false,"trial_type":"rotation","trial_index":0,"trial_index_global":38,"time_elapsed":608932,"internal_chunk_id":"0-0.6-0"},{"prompt":"Press E if the figure is incorrect, and press I if the figure is correct.","correct_response":"correct","response":69,"trial_time":14335,"rt":14335,"response_choices":[69,73],"response_mappings":["incorrect","correct"],"rotation_speed":-0.00087,"rotation_time":1600,"object_specifier":[[3],[1],[2],[0]],"initial_angle":3.3865880285505487,"final_object_specifier":[[3],[1],[2],[0]],"final_angle":1.9945880285505488,"verb_supp_check":true,"consonant_correct_count":4,"verb_supp_consonants":[["k"],["m"],["j"],["s"]],"experiment_trial_type":"correct","practice_trial":false,"trial_type":"rotation","trial_index":0,"trial_index_global":39,"time_elapsed":623768,"internal_chunk_id":"0-0.6-0"},{"prompt":"Press E if the figure is incorrect, and press I if the figure is correct.","correct_response":"incorrect","response":69,"trial_time":9816,"rt":9816,"response_choices":[69,73],"response_mappings":["incorrect","correct"],"rotation_speed":0.00087,"rotation_time":2400,"object_specifier":[[0],[2],[1],[3]],"initial_angle":4.6050550949146745,"final_object_specifier":[[3],[2],[1],[0]],"final_angle":6.6930550949146745,"verb_supp_check":false,"consonant_correct_count":0,"verb_supp_consonants":[["g"],["z"],["w"],["j"]],"experiment_trial_type":"swap","practice_trial":false,"trial_type":"rotation","trial_index":0,"trial_index_global":40,"time_elapsed":634084,"internal_chunk_id":"0-0.6-0"},{"prompt":" Press E  if the figure is incorrect, and press I if the figure is correct.","correct_response":"correct","response":73,"trial_time":10628,"rt":10628,"response_choices":[69,73],"response_mappings":["incorrect","correct"],"rotation_speed":-0.00087,"rotation_time":2400,"object_specifier":[[3],[2],[1],[0]],"initial_angle":0.381446996089908,"final_object_specifier":[[3],[2],[1],[0]],"final_angle":-1.706553003910092,"verb_supp_check":false,"consonant_correct_count":0,"verb_supp_consonants":[["k"],["y"],["f"],["w"]],"experiment_trial_type":"correct","practice_trial":false,"trial_type":"rotation","trial_index":0,"trial_index_global":41,"time_elapsed":645212,"internal_chunk_id":"0-0.6-0"},{"prompt":"Press E if the figure is incorrect, and press I if the figure is correct.","correct_response":"correct","response":69,"trial_time":8440,"rt":8440,"response_choices":[69,73],"response_mappings":["incorrect","correct"],"rotation_speed":0.00087,"rotation_time":800,"object_specifier":[[1],[2],[3],[0]],"initial_angle":3.9050538644594015,"final_object_specifier":[[1],[2],[3],[0]],"final_angle":4.601053864459401,"verb_supp_check":false,"consonant_correct_count":0,"verb_supp_consonants":[["j"],["d"],["f"],["q"]],"experiment_trial_type":"correct","practice_trial":false,"trial_type":"rotation","trial_index":0,"trial_index_global":42,"time_elapsed":654153,"internal_chunk_id":"0-0.6-0"},{"prompt":"Press E if the figure is incorrect, and press I if the figure is correct.","correct_response":"correct","response":73,"trial_time":13089,"rt":13089,"response_choices":[69,73],"response_mappings":["incorrect","correct"],"rotation_speed":0,"rotation_time":800,"object_specifier":[[2],[3],[0],[1]],"initial_angle":3.5486515928627957,"final_object_specifier":[[2],[3],[0],[1]],"final_angle":3.5486515928627957,"verb_supp_check":true,"consonant_correct_count":4,"verb_supp_consonants":[["n"],["w"],["x"],["f"]],"experiment_trial_type":"correct","practice_trial":false,"trial_type":"rotation","trial_index":0,"trial_index_global":43,"time_elapsed":667742,"internal_chunk_id":"0-0.6-0"},{"prompt":"Press E if the figure is incorrect, and press I if the figure is correct.","correct_response":"incorrect","response":73,"trial_time":8351,"rt":8351,"response_choices":[69,73],"response_mappings":["incorrect","correct"],"rotation_speed":0.00087,"rotation_time":800,"object_specifier":[[1],[2],[0],[3]],"initial_angle":6.088312857159843,"final_object_specifier":[[2],[1],[0],[3]],"final_angle":6.784312857159843,"verb_supp_check":false,"consonant_correct_count":0,"verb_supp_consonants":[["f"],["t"],["w"],["s"]],"experiment_trial_type":"swap","practice_trial":false,"trial_type":"rotation","trial_index":0,"trial_index_global":44,"time_elapsed":676594,"internal_chunk_id":"0-0.6-0"},{"prompt":"Press E if the figure is incorrect, and press I if the figure is correct.","correct_response":"incorrect","response":69,"trial_time":8917,"rt":8917,"response_choices":[69,73],"response_mappings":["incorrect","corr ect"],"rotation_speed":0,"rotation_time":1600,"object_specifier":[[1],[0],[2],[3]],"initial_angle":4.156928111369927,"final_object_specifier":[[0],[1],[2],[3]],"final_angle":4.156928111369927,"verb_supp_check":false,"consonant_correct_count":0,"verb_supp_consonants":[["n"],["l"],["q"],["d"]],"experiment_trial_type":"swap","practice_trial":false,"trial_type":"rotation","trial_index":0,"trial_index_global":45,"time_elapsed":686025,"internal_chunk_id":"0-0.6-0"},{"prompt":"Press E if the figure is incorrect, and press I if the figure is correct.","correct_response":"incorrect","response":69,"trial_time":12905,"rt":12905,"response_choices":[69,73],"response_mappings":["incorrect","correct"],"rotation_speed":-0.00087,"rotation_time":800,"object_specifier":[[2],[0],[3],[1]],"initial_angle":1.2359708270545886,"final_object_specifier":[[2],[0],[1],[3]],"final_angle":0.5399708270545887,"verb_supp_check":true,"consonant_correct_count":4,"verb_supp_consonants":[["j"],["g"],["h"],["q"]],"experiment_trial_type":"swap","practice_trial":false,"trial_type":"rotation","trial_index":0,"trial_index_global":46,"time_elapsed":699430,"internal_chunk_id":"0-0.6-0"},{"prompt":"Press E if the figure is incorrect, and press I if the figure is correct.","correct_response":"correct","response":73,"trial_time":8960,"rt":8960,"response_choices":[69,73],"response_mappings":["incorrect","correct"],"rotation_speed":0,"rotation_time":1600,"object_specifier":[[3],[2],[1],[0]],"initial_angle":6.007844215809366,"final_object_specifier":[[3],[2],[1],[0]],"final_angle":6.007844215809366,"verb_supp_check":false,"consonant_correct_count":0,"verb_supp_consonants":[["f"],["b"],["n"],["k"]],"experiment_trial_type":"correct","practice_trial":false,"trial_type":"rotation","trial_index":0,"trial_index_global":47,"time_elapsed":708890,"internal_chunk_id":"0-0.6-0"},{"prompt":"Press E if the figure is incorrect, and press I if the figure is correct.","correct_response":"correct","response":73,"trial_time":8239,"rt":8239,"response_choices":[69,73],"response_mappings":["incorrect","correct"],"rotation_speed":0,"rotation_time":1600,"object_specifier":[[2],[3],[1],[0]],"initial_angle":5.421820688411493,"final_object_specifier":[[2],[3],[1],[0]],"final_angle":5.421820688411493,"verb_supp_check":false,"consonant_correct_count":0,"verb_supp_consonants":[["l"],["y"],["d"],["r"]],"experiment_trial_type":"correct","practice_trial":false,"trial_type":"rotation","trial_index":0,"trial_index_global":48,"time_elapsed":717629,"internal_chunk_id":"0-0.6-0"},{"prompt":"Press E if the figure is incorrect, and press I if the figure is correct.","correct_response":"incorrect","response":69,"trial_time":12915,"rt":12915,"response_choices":[69,73],"response_mappings":["incorrect","correct"],"rotation_speed":0.00087,"rotation_time":1600,"object_specifier":[[3],[0],[1],[2]],"initial_angle":1.2701663323489274,"final_object_specifier":[[3],[2],[1],[0]],"final_angle":2.662166332348927,"verb_supp_check":true,"consonant_correct_count":4,"verb_supp_consonants":[["q"],["f"],["s"],["n"]],"experiment_trial_type":"swap","practice_trial":false,"trial_type":"rotation","trial_index":0,"trial_index_global":49,"time_elapsed":731044,"internal_chunk_id":"0-0.6-0"},{"prompt":"Press E if the figure is incorrect, and press I if the figure is correct.","correct_response":"incorrect","response":73,"trial_time":7341,"rt":7341,"response_choices":[69,73],"response_mappings":["incorrect","correct"],"rotation_speed":0,"rotation_time":800,"object_specifier":[[1],[2],[3],[0]],"initial_angle":4.564824410322322,"final_object_specifier":[[2],[1],[3],[0]],"final_angle":4.564824410322322,"verb_supp_check":false,"consonant_correct_count":0,"verb_supp_consonants":[["m"],["d"],["x"],["q"]],"experiment_trial_type":"swap","practice_trial":false,"trial_type":"rotation","trial_index":0,"trial_index_global":50,"time_elapsed":738885,"internal_chunk_id":"0-0.6-0"},{"prompt":"Press E if the figure is incorrect, and press I if the  figure i s correct.","correct_response":"correct","response":73,"trial_time":10747,"rt":10747,"response_choices":[69,73],"response_mappings":["incorrect","correct"],"rotation_speed":-0.00087,"rotation_time":800,"object_specifier":[[0],[1],[2],[3]],"initial_angle":2.424295870796771,"final_object_specifier":[[0],[1],[2],[3]],"final_angle":1.728295870796771,"verb_supp_check":false,"consonant_correct_count":0,"verb_supp_consonants":[["v"],["m"],["x"],["r"]],"experiment_trial_type":"correct","practice_trial":false,"trial_type":"rotation","trial_index":0,"trial_index_global":51,"time_elapsed":750133,"internal_chunk_id":"0-0.6-0"},{"prompt":"Press E if the figure is incorrect, and press I if the figure is correct.","correct_response":"incorrect","response":73,"trial_time":8772,"rt":8772,"response_choices":[69,73],"response_mappings":["incorrect","correct"],"rotation_speed":-0.00087,"rotation_time":800,"object_specifier":[[1],[3],[2],[0]],"initial_angle":2.4791057058464023,"final_object_specifier":[[1],[3],[2],[0]],"final_angle":0.39110570584640225,"verb_supp_check":false,"consonant_correct_count":0,"verb_supp_consonants":[["p"],["j"],["z"],["x"]],"experiment_trial_type":"rotate","practice_trial":false,"trial_type":"rotation","trial_index":0,"trial_index_global":52,"time_elapsed":759405,"internal_chunk_id":"0-0.6-0"},{"prompt":"Press E if the figure is incorrect, and press I if the figure is correct.","correct_response":"correct","response":73,"trial_time":9132,"rt":9132,"response_choices":[69,73],"response_mappings":["incorrect","correct"],"rotation_speed":0,"rotation_time":2400,"object_specifier":[[2],[1],[0],[3]],"initial_angle":1.9814124333010497,"final_object_specifier":[[2],[1],[0],[3]],"final_angle":1.9814124333010497,"verb_supp_check":false,"consonant_correct_count":0,"verb_supp_consonants":[["f"],["r"],["h"],["n"]],"experiment_trial_type":"correct","practice_trial":false,"trial_type":"rotation","trial_index":0,"trial_index_global":53,"time_elapsed":769037,"internal_chunk_id":"0-0.6-0"},{"prompt":"Press E if the figure is incorrect, and press I if the figure is correct.","correct_response":"incorrect","response":73,"trial_time":9568,"rt":9568,"response_choices":[69,73],"response_mappings":["incorrect","correct"],"rotation_speed":0.00087,"rotation_time":800,"object_specifier":[[2],[3],[0],[1]],"initial_angle":5.414724532165244,"final_object_specifier":[[2],[3],[0],[1]],"final_angle":7.502724532165244,"verb_supp_check":false,"consonant_correct_count":0,"verb_supp_consonants":[["g"],["q"],["t"],["y"]],"experiment_trial_type":"rotate","practice_trial":false,"trial_type":"rotation","trial_index":0,"trial_index_global":54,"time_elapsed":779106,"internal_chunk_id":"0-0.6-0"},{"prompt":"Press E if the figure is incorrect, and press I if the figure is correct.","correct_response":"correct","response":69,"trial_time":8435,"rt":8435,"response_choices":[69,73],"response_mappings":["incorrect","correct"],"rotation_speed":0.00087,"rotation_time":800,"object_specifier":[[2],[0],[3],[1]],"initial_angle":3.809768471348883,"final_object_specifier":[[2],[0],[3],[1]],"final_angle":4.505768471348883,"verb_supp_check":false,"consonant_correct_count":0,"verb_supp_consonants":[["n"],["c"],["x"],["h"]],"experiment_trial_type":"correct","practice_trial":false,"trial_type":"rotation","trial_index":0,"trial_index_global":55,"time_elapsed":788042,"internal_chunk_id":"0-0.6-0"},{"prompt":"Press E if the figure is incorrect, and press I if the figure is correct.","correct_response":"correct","response":73,"trial_time":10632,"rt":10632,"response_choices":[69,73],"response_mappings":["incorrect","correct"],"rotation_speed":0,"rotation_time":800,"object_specifier":[[1],[0],[3],[2]],"initial_angle":0.11154007630903248,"final_object_specifier":[[1],[0],[3],[2]],"final_angle":0.11154007630903248,"verb_supp_check":true,"consonant_correct_count":4,"verb_supp_consonants":[["x"],["n"],["y"],["h"]],"experiment_trial_type":"correct","practice_trial":false,"trial_type":"rotation","trial_index":0,"trial_index_global":56,"time_elapsed":799174,"internal_chunk_id":"0-0.6-0"},{"prompt":"Press E if the figure is incorrect, and press I if the figure is correct.","correct_response":"correct","response":73,"trial_time":13150,"rt":13150,"response_choices":[69,73],"response_mappings":["incorrect","correct"],"rotation_speed":-0.00087,"rotation_time":800,"object_specifier":[[1],[0],[2],[3]],"initial_angle":2.1141031275782174,"final_object_specifier":[[1],[0],[2],[3]],"final_angle":1.4181031275782174,"verb_supp_check":true,"consonant_correct_count":4,"verb_supp_consonants":[["y"],["b"],["q"],["m"]],"experiment_trial_type":"correct","practice_trial":false,"trial_type":"rotation","trial_index":0,"trial_index_global":57,"time_elapsed":812824,"internal_chunk_id":"0-0.7-0"},{"prompt":"Press E if the figure is incorrect, and press I if the figure is correct.","correct_response":"incorrect","response":73,"trial_time":9743,"rt":9743,"response_choices":[69,73],"response_mappings":["incorrect","correct"],"rotation_speed":0.00087,"rotation_time":2400,"object_specifier":[[3],[2],[1],[0]],"initial_angle":5.713833295154388,"final_object_specifier":[[3],[2],[1],[0]],"final_angle":7.1058332951543886,"verb_supp_check":false,"consonant_correct_count":0,"verb_supp_consonants":[["g"],["r"],["m"],["l"]],"experiment_trial_type":"rotate","practice_trial":false,"trial_type":"rotation","trial_index":0,"trial_index_global":58,"time_elapsed":823067,"internal_chunk_id":"0-0.7-0"},{"prompt":"Press E if the figure is incorrect, and press I if the figure is correct.","correct_response":"incorrect","response":69,"trial_time":8563,"rt":8563,"response_choices":[69,73],"response_mappings":["incorrect","correct"],"rotation_speed":0.00087,"rotation_time":800,"object_specifier":[[0],[3],[2],[1]],"initial_angle":4.817582435302895,"final_object_specifier":[[0],[1],[2],[3]],"final_angle":5.513582435302895,"verb_supp_check":false,"consonant_correct_count":0,"verb_supp_consonants":[["h"],["l"],["s"],["x"]],"experiment_trial_type":"swap","practice_trial":false,"trial_type":"rotation","trial_index":0,"trial_index_global":59,"time_elapsed":832130,"internal_chunk_id":"0-0.7-0"},{"prompt":"Press E if the figure is incorrect, and press I if the figure is correct.","correct_response":"correct","response":73,"trial_time":13787,"rt":13787,"response_choices":[69,73],"response_mappings":["incorrect","correct"],"rotation_speed":0.00087,"rotation_time":1600,"object_specifier":[[3],[2],[1],[0]],"initial_angle":4.780174367758158,"final_object_specifier":[[3],[2],[1],[0]],"final_angle":6.172174367758158,"verb_supp_check":false,"consonant_correct_count":0,"verb_supp_consonants":[["h"],["r"],["l"],["m"]],"experiment_trial_type":"correct","practice_trial":false,"trial_type":"rotation","trial_index":0,"trial_index_global":60,"time_elapsed":846414,"internal_chunk_id":"0-0.7-0"},{"prompt":"Press E if the figure is incorrect, and press I if the figure is correct.","correct_response":"correct","response":73,"trial_time":9725,"rt":9725,"response_choices":[69,73],"response_mappings":["incorrect","correct"],"rotation_speed":-0.00087,"rotation_time":1600,"object_specifier":[[3],[2],[0],[1]],"initial_angle":6.193118943074003,"final_object_specifier":[[3],[2],[0],[1]],"final_angle":4.8011189430740036,"verb_supp_check":false,"consonant_correct_count":0,"verb_supp_consonants":[["j"],["f"],["w"],["t"]],"experiment_trial_type":"correct","practice_trial":false,"trial_type":"rotation","trial_index":0,"trial_index_global":61,"time_elapsed":856639,"internal_chunk_id":"0-0.7-0"},{"prompt":"Press E if the figure is incorrect, and press I if the figure is correct.","correct_response":"incorrect","response":73,"trial_time":8762,"rt":8762,"response_choices":[69,73],"response_mappings":["incorrect","correct"],"rotation_speed":-0.00087,"rotation_time":1600,"object_specifier":[[2],[1],[3],[0]],"initial_angle":5.289004297287118,"final_object_specifier":[[2],[1],[3],[0]],"final_angle":3.2010042972871178,"verb_supp_check":false,"consonant_correct_count":0,"verb_supp_consonants":[["s"],["n"],["p"],["f"]],"experiment_trial_type":"rotate","practice_trial":false,"trial_type":"rotation","trial_index":0,"trial_index_global":62,"time_elapsed":865903,"internal_chunk_id":"0-0.7-0"},{"prompt":"Press E if the figure is incorrect, and press I if the figure is correct.","correct_response":"incorrect","response":73,"trial_time":9843,"rt":9843,"response_choices":[69,73],"response_mappings":["incorrect","correct"],"rotation_speed":0.00087,"rotation_time":1600,"object_specifier":[[3],[0],[1],[2]],"initial_angle":0.19952157880604665,"final_object_specifier":[[0],[3],[1],[2]],"final_angle":1.5915215788060466,"verb_supp_check":false,"consonant_correct_count":0,"verb_supp_consonants":[["g"],["x"],["v"],["t"]],"experiment_trial_type":"swap","practice_trial":false,"trial_type":"rotation","trial_index":0,"trial_index_global":63,"time_elapsed":876246,"internal_chunk_id":"0-0 .7-0"},{"prompt":"Press E if the figure is incorrect, and press I if the figure is correct.","correct_response":"correct","response":73,"trial_time":9452,"rt":9452,"response_choices":[69,73],"response_mappings":["incorrect","correct"],"rotation_speed":0,"rotation_time":2400,"object_specifier":[[3],[1],[0],[2]],"initial_angle":4.349891827803256,"final_object_specifier":[[3],[1],[0],[2]],"final_angle":4.349891827803256,"verb_supp_check":false,"consonant_correct_count":0,"verb_supp_consonants":[["x"],["b"],["p"],["h"]],"experiment_trial_type":"correct","practice_trial":false,"trial_type":"rotation","trial_index":0,"trial_index_global":64,"time_elapsed":886198,"internal_chunk_id":"0-0.7-0"},{"prompt":"Press E if the figure is incorrect, and press I if the figure is correct.","correct_response":"correct","response":73,"trial_time":13189,"rt":13189,"response_choices":[69,73],"response_mappings":["incorrect","correct"],"rotation_speed":0,"rotation_time":1600,"object_specifier":[[2],[3],[0],[1]],"initial_angle":1.3293589865777127,"final_object_specifier":[[2],[3],[0],[1]],"final_angle":1.3293589865777127,"verb_supp_check":true,"consonant_correct_count":4,"verb_supp_consonants":[["d"],["h"],["x"],["b"]],"experiment_trial_type":"correct","practice_trial":false,"trial_type":"rotation","trial_index":0,"trial_index_global":65,"time_elapsed":899888,"internal_chunk_id":"0-0.7-0"},{"prompt":"Press E if the figure is incorrect, and press I if the figure is correct.","correct_response":"correct","response":73,"trial_time":51263,"rt":51263,"response_choices":[69,73],"response_mappings":["incorrect","correct"],"rotation_speed":0.00087,"rotation_time":800,"object_specifier":[[0],[3],[2],[1]],"initial_angle":3.963173223969725,"final_object_specifier":[[0],[3],[2],[1]],"final_angle":4.6591732239697246,"verb_supp_check":false,"consonant_correct_count":0,"verb_supp_consonants":[["t"],["b"],["c"],["n"]],"experiment_trial_type":"correct","practice_trial":false,"trial_type":"rotation","trial_index":0,"trial_index_global":66,"time_elapsed":951651,"internal_chunk_id":"0-0.7-0"},{"prompt":"Press E if the figure is incorrect, and press I if the figure is correct.","correct_response":"correct","response":73,"trial_time":12758,"rt":12758,"response_choices":[69,73],"response_mappings":["incorrect","correct"],"rotation_speed":0,"rotation_time":2400,"object_specifier":[[0],[2],[1],[3]],"initial_angle":2.0865693284335363,"final_object_specifier":[[0],[2],[1],[3]],"final_angle":2.0865693284335363,"verb_supp_check":true,"consonant_correct_count":4,"verb_supp_consonants":[["z"],["b"],["g"],["m"]],"experiment_trial_type":"correct","practice_trial":false,"trial_type":"rotation","trial_index":0,"trial_index_global":67,"time_elapsed":964909,"internal_chunk_id":"0-0.7-0"},{"prompt":"Press E if the figure is incorrect, and press I if the figure is correct.","correct_response":"correct","response":73,"trial_time":11164,"rt":11164,"response_choices":[69,73],"response_mappings":["incorr ect","co rrect"],"rotation_speed":-0.00087,"rotation_time":800,"object_specifier":[[0],[2],[3],[1]],"initial_angle":3.777603986426124,"final_object_specifier":[[0],[2],[3],[1]],"final_angle":3.081603986426124,"verb_supp_check":true,"consonant_correct_count":4,"verb_supp_consonants":[["j"],["r"],["x"],["t"]],"experiment_trial_type":"correct","practice_trial":false,"trial_type":"rotation","trial_index":0,"trial_index_global":68,"time_elapsed":976573,"internal_chunk_id":"0-0.7-0"},{"prompt":"Press E if the figure is incorrect, and press I if the figure is correct.","correct_response":"incorrect","response":73,"trial_time":12892,"rt":12892,"response_choices":[69,73],"response_mappings":["incorrect","correct"],"rotation_speed":-0.00087,"rotation_time":2400,"object_specifier":[[3],[0],[1],[2]],"initial_angle":3.0493345748762137,"final_object_specifier":[[2],[0],[1],[3]],"final_angle":0.9613345748762137,"verb_supp_check":true,"consonant_correct_count":4,"verb_supp_consonants":[["p"],["j"],["w"],["z"]],"experiment_trial_type":"swap","practice_trial":false,"trial_type":"rotation","trial_index":0,"trial_index_global":69,"time_elapsed":989966,"internal_chunk_id":"0-0.7-0"},{"prompt":"Press E if the figure is incorrect, and press I if the figure is correct.","correct_response":"incorrect","response":69,"trial_time":8269,"rt":8269,"response_choices":[69,73],"response_mappings":["incorrect","correct"],"rotation_speed":0,"rotation_time":800,"object_specifier":[[2],[3],[0],[1]],"initial_angle":0.7664958647265508,"final_object_specifier":[[2],[3],[1],[0]],"final_angle":0.7664958647265508,"verb_supp_check":false,"consonant_correct_count":0,"verb_supp_consonants":[["v"],["z"],["s"],["g"]],"experiment_trial_type":"swap","practice_trial":false,"trial_type":"rotation","trial_index":0,"trial_index_global":70,"time_elapsed":998735,"internal_chunk_id":"0-0.7-0"},{"prompt":"Press E if the figure is incorrect, and press I if the figure is correct.","correct_response":"correct","response":73,"trial_time":8253,"rt":8253,"response_choices":[69,73],"response_mappings":["incorrect","correct"],"rotation_speed":0,"rotation_time":1600,"object_specifier":[[0],[2],[1],[3]],"initial_angle":3.258469005936142,"final_object_specifier":[[0],[2],[1],[3]],"final_angle":3.258469005936142,"verb_supp_check":false,"consonant_correct_count":0,"verb_supp_consonants":[["m"],["s"],["t"],["h"]],"experiment_trial_type":"correct","practice_trial":false,"trial_type":"rotation","trial_index":0,"trial_index_global":71,"time_elapsed":1007488,"internal_chunk_id":"0-0.7-0"},{"prompt":"Press E if the figure is incorrect, and press I if the figure is correct.","correct_response":"incorrect","response":69,"trial_time":9288,"rt":9288,"response_choices":[69,73],"response_mappings":["incorrect","correct"],"rotation_speed":0.00087,"rotation_time":800,"object_specifier":[[1],[2],[3],[0]],"initial_angle":0.4772127222596547,"final_object_specifier":[[1],[2],[3],[0]],"final_angle":2.5652127222596546,"verb_supp_check":false,"consonant_correct_count":0,"verb_supp_consonants":[["q"],["n"],["r"],["d"]],"experiment_trial_type":"rotate","practice_trial":false,"trial_type":"rotation","trial_index":0,"trial_index_global":72,"time_elapsed":1017276,"internal_chunk_id":"0-0.7-0"},{"prompt":"Press E if the figure is incorrect, and press I if the figure is correct.","correct_response":"correct","response":73,"trial_time":8916,"rt":8916,"response_choices":[69,73],"response_mappings":["incorrect","correct"],"rotation_speed":0.00087,"rotation_time":1600,"object_specifier":[[1],[2],[3],[0]],"initial_angle":0.12212052598723051,"final_object_specifier":[[1],[2],[3],[0]],"final_angle":1.5141205259872303,"verb_supp_check":false,"consonant_correct_count":0,"verb_supp_consonants":[["y"],["n"],["r"],["c"]],"experiment_trial_type":"correct","practice_trial":false,"trial_type":"rotation","trial_index":0,"trial_index_global":73,"time_elapsed":1026692,"internal_chunk_id":"0-0.7-0"},{"prompt":"Press E if the figure  is inco rrect, and press I if the figure is correct.","correct_response":"correct","response":73,"trial_time":7891,"rt":7891,"response_choices":[69,73],"response_mappings":["incorrect","correct"],"rotation_speed":0.00087,"rotation_time":800,"object_specifier":[[1],[0],[3],[2]],"initial_angle":0.030616040263824033,"final_object_specifier":[[1],[0],[3],[2]],"final_angle":0.726616040263824,"verb_supp_check":false,"consonant_correct_count":0,"verb_supp_consonants":[["l"],["h"],["k"],["q"]],"experiment_trial_type":"correct","practice_trial":false,"trial_type":"rotation","trial_index":0,"trial_index_global":74,"time_elapsed":1035084,"internal_chunk_id":"0-0.7-0"},{"prompt":"Press E if the figure is incorrect, and press I if the figure is correct.","correct_response":"correct","response":73,"trial_time":9123,"rt":9123,"response_choices":[69,73],"response_mappings":["incorrect","correct"],"rotation_speed":0.00087,"rotation_time":2400,"object_specifier":[[0],[1],[3],[2]],"initial_angle":5.076370339429281,"final_object_specifier":[[0],[1],[3],[2]],"final_angle":7.164370339429281,"verb_supp_check":false,"consonant_correct_count":0,"verb_supp_consonants":[["p"],["v"],["g"],["n"]],"experiment_trial_type":"correct","practice_trial":false,"trial_type":"rotation","trial_index":0,"trial_index_global":75,"time_elapsed":1044708,"internal_chunk_id":"0-0.7-0"},{"prompt":"Press E if the figure is incorrect, and press I if the figure is correct.","correct_response":"incorrect","response":73,"trial_time":9467,"rt":9467,"response_choices":[69,73],"response_mappings":["incorrect","correct"],"rotation_speed":-0.00087,"rotation_time":2400,"object_specifier":[[3],[0],[1],[2]],"initial_angle":4.857637935455255,"final_object_specifier":[[3],[0],[1],[2]],"final_angle":3.465637935455255,"verb_supp_check":false,"consonant_correct_count":0,"verb_supp_consonants":[["c"],["m"],["s"],["z"]],"experiment_trial_type":"rotate","practice_trial":false,"trial_type":"rotation","trial_index":0,"trial_index_global":76,"time_elapsed":1054676,"internal_chunk_id":"0-0.7-0"},{"prompt":"Press E if the figure is incorrect, and press I if the figure is correct.","correct_response":"incorrect","response":73,"trial_time":8548,"rt":8548,"response_choices":[69,73],"response_mappings":["incorrect","correct"],"rotation_speed":-0.00087,"rotation_time":1600,"object_specifier":[[3],[0],[1],[2]],"initial_angle":3.4711900439926477,"final_object_specifier":[[1],[0],[3],[2]],"final_angle":2.079190043992648,"verb_supp_check":false,"consonant_correct_count":0,"verb_supp_consonants":[["b"],["f"],["c"],["g"]],"experiment_trial_type":"swap","practice_trial":false,"trial_type":"rotation","trial_index":0,"trial_index_global":77,"time_elapsed":1063724,"internal_chunk_id":"0-0.7-0"},{"prompt":"Press E if the figure is incorrect, and press I if the figure is correct.","correct_response":"correct","response":73,"trial_time":9152,"rt":9152,"response_choices":[69,73],"response_mappings":["incorrect","correct"],"rotation_speed":0.00087,"rotation_time":2400,"object_specifier":[[2],[0],[3],[1]],"initial_angle":4.837447179000634,"final_object_specifier":[[2],[0],[3],[1]],"final_angle":6.925447179000634,"verb_supp_check":false,"consonant_correct_count":0,"verb_supp_consonants":[["c"],["g"],["k"],["p"]],"experiment_trial_type":"correct","practice_trial":false,"trial_type":"rotation","trial_index":0,"trial_index_global":78,"time_elapsed":1073377,"internal_chunk_id":"0-0.7-0"},{"prompt":"Press E if the figure is incorrect, and press I if the figure is correct.","correct_response":"incorrect","response":69,"trial_time":8964,"rt":8964,"response_choices":[69,73],"response_mappings":["incorrect","correct"],"rotation_speed":0,"rotation_time":2400,"object_specifier":[[0],[2],[3],[1]],"initial_angle":0.14914081162772716,"final_object_specifier":[[0],[2],[1],[3]],"final_angle":0.14914081162772716,"verb_supp_check":false,"consonant_correct_count":0,"verb_supp_consonants":[["z"],["b"],["c"],["x"]],"experiment_trial_type":"swap","practice_trial":false,"trial_type":"rotation","trial_index":0,"trial_index_global":79,"time_elapsed":1082841,"internal_chunk_id":"0-0.7-0"},{"prompt":"Press E if the figure is incorrect, and press I if the figure is correct.","correct_response":"correct","response":73,"trial_time":9221,"rt":9221,"response_choices":[69,73],"response_mappings":["incorrect","correct"],"rotation_speed":-0.00087,"rotation_time":2400,"object_specifier":[[1],[2],[0],[3]],"initial_angle":1.390117634630712,"final_object_specifier":[[1],[2],[0],[3]],"final_angle":-0.697882365369288,"verb_supp_check":false,"consonant_correct_count":0,"verb_supp_consonants":[["g"],["r"],["w"],["c"]],"experiment_trial_type":"correct","practice_trial":false,"trial_type":"rotation","trial_index":0,"trial_index_global":80,"time_elapsed":1092562,"internal_chunk_id":"0-0.7-0"},{"prompt":"Press E if the figure is incorrect, and press I if the figure is correct.","correct_response":"incorrect","response":73,"trial_time":9539,"rt":9539,"response_choices":[69,73],"response_mappings":["incorrect","correct"],"rotation_speed":0.00087,"rotation_time":2400,"object_specifier":[[1],[3],[2],[0]],"initial_angle":1.4397697252395847,"final_object_specifier":[[1],[0],[2],[3]],"final_angle":3.527769725239585,"verb_supp_check":false,"consonant_correct_count":0,"verb_supp_consonants":[["g"],["k"],["b"],["w"]],"experiment_trial_type":"swap","practice_trial":false,"trial_type":"rotation","trial_index":0,"trial_index_global":81,"time_elapsed":1102601,"internal_chunk_id":"0-0.7-0"},{"prompt":"Press E if the figure is incorrect, and press I if the figure is correct.","correct_response":"correct","response":73,"trial_time":13771,"rt":13771,"response_choices":[69,73],"response_mappings":["incorrect","correct"],"rotation_speed":-0.00087,"rotation_time":2400,"object_specifier":[[1],[2],[0],[3]],"initial_angle":6.022637541862204,"final_object_specifier":[[1],[2],[0],[3]],"final_angle":3.9346375418622035,"verb_supp_check":true,"consonant_correct_count":4,"verb_supp_consonants":[["y"],["g"],["f"],["m"]],"experiment_trial_type":"correct","practice_trial":false,"trial_type":"rotation","trial_index":0,"trial_index_global":82,"time_elapsed":1116872,"internal_chunk_id":"0-0.7-0"},{"prompt":"Press E if the figure is incorrect, and press I if the figure is correct.","correct_response":"correct","response":73,"trial_time":7301,"rt":7301,"response_choices":[69,73],"response_mappings":["incorrect","correct"],"rotation_speed":0,"rotation_time":800,"object_specifier":[[2],[3],[0],[1]],"initial_angle":4.263408625522174,"final_object_specifier":[[2],[3],[0],[1]],"final_angle":4.263408625522174,"verb_supp_check":false,"consonant_correct_count":0,"verb_supp_consonants":[["k"],["f"],["g"],["m"]],"experiment_trial_type":"correct","practice_trial":false,"trial_type":"rotation","trial_index":0,"trial_index_global":83,"time_elapsed":1124673,"internal_chunk_id":"0-0.7-0"},{"prompt":"Press E if the figure is incorrect, and  press I  if the figure is correct.","correct_response":"incorrect","response":73,"trial_time":8432,"rt":8432,"response_choices":[69,73],"response_mappings":["incorrect","correct"],"rotation_speed":0,"rotation_time":1600,"object_specifier":[[0],[2],[1],[3]],"initial_angle":1.6727132124079813,"final_object_specifier":[[0],[3],[1],[2]],"final_angle":1.6727132124079813,"verb_supp_check":false,"consonant_correct_count":0,"verb_supp_consonants":[["t"],["x"],["h"],["q"]],"experiment_trial_type":"swap","practice_trial":false,"trial_type":"rotation","trial_index":0,"trial_index_global":84,"time_elapsed":1133605,"internal_chunk_id":"0-0.7-0"},{"prompt":"Press E if the figure is incorrect, and press I if the figure is correct.","correct_response":"incorrect","response":73,"trial_time":8923,"rt":8923,"response_choices":[69,73],"response_mappings":["incorrect","correct"],"rotation_speed":0.00087,"rotation_time":1600,"object_specifier":[[1],[0],[2],[3]],"initial_angle":1.4021153066790533,"final_object_specifier":[[1],[0],[2],[3]],"final_angle":2.098115306679053,"verb_supp_check":false,"consonant_correct_count":0,"verb_supp_consonants":[["v"],["w"],["y"],["s"]],"experiment_trial_type":"rotate","practice_trial":false,"trial_type":"rotation","trial_index":0,"trial_index_global":85,"time_elapsed":1143029,"internal_chunk_id":"0-0.7-0"},{"prompt":"Press E if the figure is incorrect, and press I if the figure is correct.","correct_response":"correct","response":73,"trial_time":8211,"rt":8211,"response_choices":[69,73],"response_mappings":["incorrect","correct"],"rotation_speed":0,"rotation_time":800,"object_specifier":[[3],[0],[1],[2]],"initial_angle":2.07348671098715,"final_object_specifier":[[3],[0],[1],[2]],"final_angle":2.07348671098715,"verb_supp_check":false,"consonant_correct_count":0,"verb_supp_consonants":[["m"],["n"],["w"],["f"]],"experiment_trial_type":"correct","practice_trial":false,"trial_type":"rotation","trial_index":0,"trial_index_global":86,"time_elapsed":1151741,"internal_chunk_id":"0-0.7-0"},{"prompt":"Press E if the figure is incorrect, and press I if the figure is correct.","correct_response":"incorrect","response":69,"trial_time":7859,"rt":7859,"response_choices":[69,73],"response_mappings":["incorrect","correct"],"rotation_speed":-0.00087,"rotation_time":800,"object_specifier":[[2],[0],[3],[1]],"initial_angle":4.796650089100941,"final_object_specifier":[[2],[3],[0],[1]],"final_angle":4.100650089100942,"verb_supp_check":false,"consonant_correct_count":0,"verb_supp_consonants":[["t"],["b"],["f"],["r"]],"experiment_trial_type":"swap","practice_trial":false,"trial_type":"rotation","trial_index":0,"trial_index_global":87,"time_elapsed":1160101,"internal_chunk_id":"0-0.7-0"},{"prompt":"Press E if the figure is incorrect, and press I if the figure is correct.","correct_response":"incorrect","response":69,"trial_time":7500,"rt":7500,"response_choices":[69,73],"response_mappings":["incorrect","correct"],"rotation_speed":-0.00087,"rotation_time":800,"object_specifier":[[0],[3],[1],[2]],"initial_angle":0.3288774021038805,"final_object_specifier":[[0],[3],[1],[2]],"final_angle":-1.7591225978961196,"verb_supp_check":false,"consonant_correct_count":0,"verb_supp_consonants":[["x"],["j"],["z"],["s"]],"experiment_trial_type":"rotate","practice_trial":false,"trial_type":"rotation","trial_index":0,"trial_index_global":88,"time_elapsed":1168101,"internal_chunk_id":"0-0.7-0"},{"prompt":"Press E if the figure is incorrect, and press I if the figure is correct.","correct_response":"correct","response":73,"trial_time":8883,"rt":8883,"response_choices":[69,73],"response_mappings":["incorrect","correct"],"rotation_speed":-0.00087,"rotation_time":1600,"object_specifier":[[2],[0],[1],[3]],"initial_angle":5.6729148810696275,"final_object_specifier":[[2],[0],[1],[3]],"final_angle":4.280914881069627,"verb_supp_check":false,"consonant_correct_count":0,"verb_supp_consonants":[["f"],["r"],["d"],["t"]],"experiment_trial_type":"correct","practice_trial":false,"trial_type":"rotation","trial_index":0,"trial_index_global":89,"time_elapsed":1177485,"internal_chunk_id":"0-0.7-0"},{"instructions":"Thanks for participating. We would like to ask you some final questions. Please press \"Continue\" to continue.","rt":4468,"trial_type":"instructions","trial_index":0,"trial_index_global":90,"time_elapsed":1182453,"internal_chunk_id":"0-0.8-0"},{"question":"What is/are your native language(s)? (The languages spoken in your household when you were a child.)","response_type":"free","response_choices":[],"correct_response":"","response":"English","rt":7678,"trial_type":"question","trial_index":0,"trial_index_global":91,"time_elapsed":1190133,"internal_chunk_id":"0-0.8-0"},{"question":"What is your gender?","response_type":"multi","response_choices":["female","male","other"],"correct_response":"","response":"female","rt":2419,"trial_type":"question","trial_index":0,"trial_index_global":92,"time_elapsed":1192553,"internal_chunk_id":"0-0.8-0"},{"question":"How old are you?","response_type":"free","response_choices":[],"correct_response":"","response":"52","rt":12975,"trial_type":"question","trial_index":0,"trial_index_global":93,"time_elapsed":1205530,"internal_chunk_id":"0-0.8-0"},{"question":"What is your race/ethnicity?","response_type":"multi","response_choices":["Asian or Pacific Islander","Black or African American","Hispanic/Latino","White","Other/Decline to state"],"correct_response":"","response":"Asian or Pacific Islander","rt":4911,"trial_type":"question","trial_index":0,"trial_index_global":94,"time_elapsed":1210441,"internal_chunk_id":"0-0.8-0"},{"question":"What is your level of education?","response_type":"multi","response_choices":["Did not graduate high school","High school diploma","Some college, no degree","Associates Degree","Bachelors Degree","Some graduate school, no degree","Masters Degree","Doctorate, M.D., etc."],"correct_response":"","response":"Bachelors Degree","rt":3423,"trial_type":"question","trial_index":0,"trial_index_global":95,"time_elapsed":1213865,"internal_chunk_id":"0-0.8-0"},{"question":"Do you have any comments on this HIT?","response_type":"free","response_choices":[],"correct_response":"","response":"It was really hard to predict the bar rotation.","rt":44675,"trial_type":"question","trial_index":0,"trial_index_global":96,"time_elapsed":1258541,"internal_chunk_id":"0-0.8-0"}]