[{"instructions":"Instructions: Please turn on your audio now. This experiment will consist of a training/practice phase, and then a set of testing trials. On each trial, you will be presented with a set of four consonants. Verbally rehearse these consonants during the remainder of the trial.<br /><br /> Next, you will be presented with a cue (a pinwheel), which will either be rotating or still. If the pinwheel is rotating, you will also hear a sound of rotation. If the pinwheel is rotating, try to remember the speed at which it is rotating (the total amount it rotates is irrelevant). <br /><br />Next, you will be shown an object consisting of four colored bars in the shape of a +. Then, the object will be hidden (pretend that a curtain drops between you and the image), and there will be a delay period. If the pinwheel was rotating, you will hear the rotation sound, and try to mentally rotate the object for the time that it is hidden, at the same rate that the pinwheel rotate d. <br / ><br />At an unpredictable point, the curtain will be raised, and the object will be revealed. Your task is to determine whether the object shown is the same as the original one (none of the bars of the + have been switched), and if it has rotated the correct amount. If the pinwheel was not rotating, you do not have to perform the mental rotation, and you only have to check if the object is the same, it will not have been rotated. <br /><br />You will respond by pressing 'e' if the object shown is incorrect and 'i' if the object shown is correct. If you respond incorrectly, you will hear a buzzer. You will be tested at the end of some (randomly chosen) trials on your memory of the consonants you were shown at the beginning. If you do not recall the consonants correctly, you will hear a buzzer, and be forced to wait for a few seconds before continuing with the experiment. <br /><br />This can all sound a little intimidating, but once you go through the training, it will seem  easier.< br /><br />Click continue when you are ready to begin the training phase of the experiment.","rt":2353,"trial_type":"instructions","trial_index":0,"trial_index_global":1,"time_elapsed":4017,"internal_chunk_id":"0-0"},{"prompt":"Press E if the figure is incorrect, and press I if the figure is correct.","correct_response":"correct","response":73,"trial_time":7751,"rt":7751,"response_choices":[69,73],"response_mappings":["incorrect","correct"],"rotation_speed":0.00087,"rotation_time":800,"object_specifier":[0,1,2,3],"initial_angle":0.5,"final_object_specifier":[0,1,2,3],"final_angle":1.196,"verb_supp_check":false,"consonant_correct_count":0,"verb_supp_consonants":[["q"],["d"],["j"],["x"]],"experiment_trial_type":"correct","practice_trial":true,"trial_type":"rotation","trial_index":0,"trial_index_global":2,"time_elapsed":12271,"internal_chunk_id":"0-0.2-0"},{"feedback":"Correct! The object was rotated correctly, and none of the bars changed positions.","rt":3811,"trial_type":"fe edback","trial_index":0,"trial_index_global":3,"time_elapsed":16586,"internal_chunk_id":"0-0.2-0"},{"prompt":"Press E if the figure is incorrect, and press I if the figure is correct.","correct_response":"incorrect","response":69,"trial_time":7749,"rt":7749,"response_choices":[69,73],"response_mappings":["incorrect","correct"],"rotation_speed":0,"rotation_time":1600,"object_specifier":[1,3,0,2],"initial_angle":0.1,"final_object_specifier":[1,3,2,0],"final_angle":0.1,"verb_supp_check":false,"consonant_correct_count":0,"verb_supp_consonants":[["g"],["v"],["z"],["j"]],"experiment_trial_type":"swap","practice_trial":true,"trial_type":"rotation","trial_index":0,"trial_index_global":4,"time_elapsed":24848,"internal_chunk_id":"0-0.2-0"},{"feedback":"Correct! The bars changed positions.","rt":3000,"trial_type":"feedback","trial_index":0,"trial_index_global":5,"time_elapsed":28352,"internal_chunk_id":"0-0.2-0"},{"prompt":"Press E if the figure is incorrect, and press I if the figure is corre ct.","correct_response":"incorrect","response":73,"trial_time":15380,"rt":15380,"response_choices":[69,73],"response_mappings":["incorrect","correct"],"rotation_speed":-0.00087,"rotation_time":2400,"object_specifier":[1,2,0,3],"initial_angle":0.6,"final_object_specifier":[1,2,0,3],"final_angle":-0.09599999999999997,"verb_supp_check":true,"consonant_correct_count":0,"verb_supp_consonants":[["b"],["d"],["r"],["n"]],"experiment_trial_type":"rotate","practice_trial":true,"trial_type":"rotation","trial_index":0,"trial_index_global":6,"time_elapsed":44236,"internal_chunk_id":"0-0.2-0"},{"feedback":"Sorry, you responded 'Correct', but in fact the object did not rotate the correct amount. Make sure that you mentally rotate the object at the same speed the pinwheel was rotating, for the whole time the object is hidden.","rt":12503,"trial_type":"feedback","trial_index":0,"trial_index_global":7,"time_elapsed":57242,"internal_chunk_id":"0-0.2-0"},{"prompt":"Press E if the figure is incorrect, a nd press  I if the figure is correct.","correct_response":"incorrect","response":69,"trial_time":9412,"rt":9412,"response_choices":[69,73],"response_mappings":["incorrect","correct"],"rotation_speed":0.00087,"rotation_time":800,"object_specifier":[1,2,0,3],"initial_angle":0,"final_object_specifier":[1,2,3,0],"final_angle":0.696,"verb_supp_check":false,"consonant_correct_count":0,"verb_supp_consonants":[["r"],["s"],["w"],["p"]],"experiment_trial_type":"swap","practice_trial":true,"trial_type":"rotation","trial_index":0,"trial_index_global":8,"time_elapsed":67159,"internal_chunk_id":"0-0.2-0"},{"feedback":"Correct! The bars changed positions.","rt":5734,"trial_type":"feedback","trial_index":0,"trial_index_global":9,"time_elapsed":73405,"internal_chunk_id":"0-0.2-0"},{"prompt":"Press E if the figure is incorrect, and press I if the figure is correct.","correct_response":"correct","response":69,"trial_time":15988,"rt":15988,"response_choices":[69,73],"response_mappings":["incorrect","cor rect"],"rotation_speed":0,"rotation_time":2400,"object_specifier":[3,2,1,0],"initial_angle":0.7,"final_object_specifier":[3,2,1,0],"final_angle":0.7,"verb_supp_check":true,"consonant_correct_count":4,"verb_supp_consonants":[["f"],["j"],["x"],["p"]],"experiment_trial_type":"correct","practice_trial":true,"trial_type":"rotation","trial_index":0,"trial_index_global":10,"time_elapsed":89901,"internal_chunk_id":"0-0.2-0"},{"feedback":"Sorry, you responded 'Incorrect', but in fact the object's bars did not change positions.","rt":3602,"trial_type":"feedback","trial_index":0,"trial_index_global":11,"time_elapsed":94006,"internal_chunk_id":"0-0.2-0"},{"prompt":"Press E if the figure is incorrect, and press I if the figure is correct.","correct_response":"incorrect","response":69,"trial_time":7967,"rt":7967,"response_choices":[69,73],"response_mappings":["incorrect","correct"],"rotation_speed":-0.00087,"rotation_time":2400,"object_specifier":[1,2,3,0],"initial_angle":0.2,"final_object_specifier":[1,2,3,0],"final_angle":-0.49599999999999994,"verb_supp_check":false,"consonant_correct_count":0,"verb_supp_consonants":[["z"],["w"],["l"],["s"]],"experiment_trial_type":"rotate","practice_trial":true,"trial_type":"rotation","trial_index":0,"trial_index_global":12,"time_elapsed":102477,"internal_chunk_id":"0-0.2-0"},{"feedback":"Thats right! The object was rotated an incorrect amount.","rt":2303,"trial_type":"feedback","trial_index":0,"trial_index_global":13,"time_elapsed":105283,"internal_chunk_id":"0-0.2-0"},{"instructions":"Great! We'll give you a few more trials to practice before you start the experiment. Click 'Continue' to begin the practice section.","rt":2757,"trial_type":"instructions","trial_index":0,"trial_index_global":14,"time_elapsed":108544,"internal_chunk_id":"0-0"},{"prompt":"Press E if the figure is incorrect, and press I if the figure is correct.","correct_response":"incorrect","response":73,"trial_time":8325,"rt":8325,"response_choices":[69,73],"response_mappings":["incorrect","correct"],"rotation_speed":0.00087,"rotation_time":800,"object_specifier":[1,0,2,3],"initial_angle":0.55,"final_object_specifier":[1,0,3,2],"final_angle":1.246,"verb_supp_check":false,"consonant_correct_count":0,"verb_supp_consonants":[["b"],["z"],["k"],["d"]],"experiment_trial_type":"swap","practice_trial":true,"trial_type":"rotation","trial_index":0,"trial_index_global":15,"time_elapsed":117375,"internal_chunk_id":"0-0.4-0"},{"prompt":"Press E if the figure is incorrect, and press I if the figure is correct.","correct_response":"correct","response":73,"trial_time":8135,"rt":8135,"response_choices":[69,73],"response_mappings":["incorrect","correct"],"rotation_speed":-0.00087,"rotation_time":2400,"object_specifier":[0,3,1,2],"initial_angle":0.11,"final_object_specifier":[0,3,1,2],"final_angle":-1.978,"verb_supp_check":false,"consonant_correct_count":0,"verb_supp_consonants":[["x"],["d"],["w"],["k"]],"experiment_trial_type":"correct","practice_trial":true,"trial_type":" rotation","trial_index":0,"trial_index_global":16,"time_elapsed":126014,"internal_chunk_id":"0-0.4-0"},{"prompt":"Press E if the figure is incorrect, and press I if the figure is correct.","correct_response":"incorrect","response":73,"trial_time":16116,"rt":16116,"response_choices":[69,73],"response_mappings":["incorrect","correct"],"rotation_speed":-0.00087,"rotation_time":1600,"object_specifier":[0,3,1,2],"initial_angle":0.4,"final_object_specifier":[0,3,1,2],"final_angle":-0.29599999999999993,"verb_supp_check":true,"consonant_correct_count":1,"verb_supp_consonants":[["x"],["y"],["z"],["l"]],"experiment_trial_type":"rotate","practice_trial":true,"trial_type":"rotation","trial_index":0,"trial_index_global":17,"time_elapsed":142635,"internal_chunk_id":"0-0.4-0"},{"prompt":"Press E if the figure is incorrect, and press I if the figure is correct.","correct_response":"correct","response":69,"trial_time":8322,"rt":8322,"response_choices":[69,73],"response_mappings":["incorrect","correc t"],"rotation_speed":0,"rotation_time":2400,"object_specifier":[3,0,2,1],"initial_angle":-0.1,"final_object_specifier":[3,0,2,1],"final_angle":-0.1,"verb_supp_check":false,"consonant_correct_count":0,"verb_supp_consonants":[["v"],["x"],["j"],["m"]],"experiment_trial_type":"correct","practice_trial":true,"trial_type":"rotation","trial_index":0,"trial_index_global":18,"time_elapsed":151460,"internal_chunk_id":"0-0.4-0"},{"prompt":"Press E if the figure is incorrect, and press I if the figure is correct.","correct_response":"correct","response":73,"trial_time":6908,"rt":6908,"response_choices":[69,73],"response_mappings":["incorrect","correct"],"rotation_speed":0.00087,"rotation_time":800,"object_specifier":[2,0,3,1],"initial_angle":0.23,"final_object_specifier":[2,0,3,1],"final_angle":0.9259999999999999,"verb_supp_check":false,"consonant_correct_count":0,"verb_supp_consonants":[["x"],["b"],["g"],["p"]],"experiment_trial_type":"correct","practice_trial":true,"trial_type":"rotat ion","trial_index":0,"trial_index_global":19,"time_elapsed":158872,"internal_chunk_id":"0-0.4-0"},{"prompt":"Press E if the figure is incorrect, and press I if the figure is correct.","correct_response":"incorrect","response":73,"trial_time":6689,"rt":6689,"response_choices":[69,73],"response_mappings":["incorrect","correct"],"rotation_speed":0.00087,"rotation_time":800,"object_specifier":[1,2,3,0],"initial_angle":0.62,"final_object_specifier":[1,2,3,0],"final_angle":2.012,"verb_supp_check":false,"consonant_correct_count":0,"verb_supp_consonants":[["l"],["w"],["p"],["z"]],"experiment_trial_type":"rotate","practice_trial":true,"trial_type":"rotation","trial_index":0,"trial_index_global":20,"time_elapsed":166066,"internal_chunk_id":"0-0.4-0"},{"prompt":"Press E if the figure is incorrect, and press I if the figure is correct.","correct_response":"incorrect","response":73,"trial_time":8112,"rt":8112,"response_choices":[69,73],"response_mappings":["incorrect","correct"],"rotation_speed":0,"rotation_time":1600,"object_specifier":[0,2,3,1],"initial_angle":-0.22,"final_object_specifier":[2,0,3,1],"final_angle":-0.22,"verb_supp_check":false,"consonant_correct_count":0,"verb_supp_consonants":[["v"],["b"],["r"],["q"]],"experiment_trial_type":"swap","practice_trial":true,"trial_type":"rotation","trial_index":0,"trial_index_global":21,"time_elapsed":174682,"internal_chunk_id":"0-0.4-0"},{"prompt":"Press E if the figure is incorrect, and press I if the figure is correct.","correct_response":"correct","response":73,"trial_time":13752,"rt":13752,"response_choices":[69,73],"response_mappings":["incorrect","correct"],"rotation_speed":0.00087,"rotation_time":2400,"object_specifier":[1,3,0,2],"initial_angle":-0.5,"final_object_specifier":[1,3,0,2],"final_angle":1.588,"verb_supp_check":true,"consonant_correct_count":0,"verb_supp_consonants":[["x"],["h"],["f"],["v"]],"experiment_trial_type":"correct","practice_trial":true,"trial_type":"rotation","trial_index":0,"trial_index_global":22,"time_elapsed":188937,"internal_chunk_id":"0-0.4-0"},{"instructions":"You've completed the practice section! Click 'Continue' to proceed.","rt":10367,"trial_type":"instructions","trial_index":0,"trial_index_global":23,"time_elapsed":199807,"internal_chunk_id":"0-0"},{"prompt":"Press E if the figure is incorrect, and press I if the figure is correct.","correct_response":"correct","response":73,"trial_time":8538,"rt":8538,"response_choices":[69,73],"response_mappings":["incorrect","correct"],"rotation_speed":-0.00087,"rotation_time":2400,"object_specifier":[[1],[3],[2],[0]],"initial_angle":1.5800205826564642,"final_object_specifier":[[1],[3],[2],[0]],"final_angle":-0.5079794173435359,"verb_supp_check":false,"consonant_correct_count":0,"verb_supp_consonants":[["f"],["r"],["n"],["z"]],"experiment_trial_type":"correct","practice_trial":false,"trial_type":"rotation","trial_index":0,"trial_index_global":24,"time_elapsed":208849,"internal_chunk_id":"0-0.6-0"},{"prompt":"Press E if the  figure i s incorrect, and press I if the figure is correct.","correct_response":"incorrect","response":69,"trial_time":6993,"rt":6993,"response_choices":[69,73],"response_mappings":["incorrect","correct"],"rotation_speed":-0.00087,"rotation_time":800,"object_specifier":[[1],[2],[3],[0]],"initial_angle":0.52771067941655,"final_object_specifier":[[1],[2],[3],[0]],"final_angle":-1.56028932058345,"verb_supp_check":false,"consonant_correct_count":0,"verb_supp_consonants":[["k"],["r"],["s"],["w"]],"experiment_trial_type":"rotate","practice_trial":false,"trial_type":"rotation","trial_index":0,"trial_index_global":25,"time_elapsed":216345,"internal_chunk_id":"0-0.6-0"},{"prompt":"Press E if the figure is incorrect, and press I if the figure is correct.","correct_response":"correct","response":69,"trial_time":12176,"rt":12176,"response_choices":[69,73],"response_mappings":["incorrect","correct"],"rotation_speed":-0.00087,"rotation_time":1600,"object_specifier":[[3],[0],[2],[1]],"initial_angle":2.9141507946262943,"final_object_specifier":[[3],[0],[2],[1]],"final_angle":1.5221507946262944,"verb_supp_check":true,"consonant_correct_count":4,"verb_supp_consonants":[["s"],["b"],["r"],["f"]],"experiment_trial_type":"correct","practice_trial":false,"trial_type":"rotation","trial_index":0,"trial_index_global":26,"time_elapsed":229025,"internal_chunk_id":"0-0.6-0"},{"prompt":"Press E if the figure is incorrect, and press I if the figure is correct.","correct_response":"incorrect","response":73,"trial_time":7510,"rt":7510,"response_choices":[69,73],"response_mappings":["incorrect","correct"],"rotation_speed":0.00087,"rotation_time":1600,"object_specifier":[[2],[3],[1],[0]],"initial_angle":4.013176072594791,"final_object_specifier":[[2],[0],[1],[3]],"final_angle":5.4051760725947915,"verb_supp_check":false,"consonant_correct_count":0,"verb_supp_consonants":[["p"],["q"],["l"],["k"]],"experiment_trial_type":"swap","practice_trial":false,"trial_type":"rotation","trial_index":0,"trial_index_global":27,"time_elapsed":237040,"internal_chunk_id":"0-0.6-0"},{"prompt":"Press E if the figure is incorrect, and press I if the figure is correct.","correct_response":"correct","response":73,"trial_time":9007,"rt":9007,"response_choices":[69,73],"response_mappings":["incorrect","correct"],"rotation_speed":0.00087,"rotation_time":2400,"object_specifier":[[0],[3],[1],[2]],"initial_angle":2.623958270097128,"final_object_specifier":[[0],[3],[1],[2]],"final_angle":4.711958270097128,"verb_supp_check":false,"consonant_correct_count":0,"verb_supp_consonants":[["c"],["b"],["m"],["q"]],"experiment_trial_type":"correct","practice_trial":false,"trial_type":"rotation","trial_index":0,"trial_index_global":28,"time_elapsed":246550,"internal_chunk_id":"0-0.6-0"},{"prompt":"Press E if the figure is incorrect, and press I if the figure is correct.","correct_response":"incorrect","response":73,"trial_time":8382,"rt":8382,"response_choices":[69,73],"response_mappings":["incorrect","correct"],"rotation_speed":-0.00087,"rotation_time":2400,"object_specifier":[[3],[0],[1],[2]],"initial_angle":4.266974125536703,"final_object_specifier":[[2],[0],[1],[3]],"final_angle":2.178974125536703,"verb_supp_check":false,"consonant_correct_count":0,"verb_supp_consonants":[["l"],["h"],["x"],["m"]],"experiment_trial_type":"swap","practice_trial":false,"trial_type":"rotation","trial_index":0,"trial_index_global":29,"time_elapsed":255436,"internal_chunk_id":"0-0.6-0"},{"prompt":"Press E if the figure is incorrect, and press I if the figure is correct.","correct_response":"correct","response":73,"trial_time":7322,"rt":7322,"response_choices":[69,73],"response_mappings":["incorrect","correct"],"rotation_speed":0,"rotation_time":1600,"object_specifier":[[1],[0],[3],[2]],"initial_angle":0.9375933446290723,"final_object_specifier":[[1],[0],[3],[2]],"final_angle":0.9375933446290723,"verb_supp_check":false,"consonant_correct_count":0,"verb_supp_consonants":[["g"],["s"],["k"],["c"]],"experiment_trial_type":"c orrect","practice_trial":false,"trial_type":"rotation","trial_index":0,"trial_index_global":30,"time_elapsed":263263,"internal_chunk_id":"0-0.6-0"},{"prompt":"Press E if the figure is incorrect, and press I if the figure is correct.","correct_response":"correct","response":73,"trial_time":13472,"rt":13472,"response_choices":[69,73],"response_mappings":["incorrect","correct"],"rotation_speed":0.00087,"rotation_time":1600,"object_specifier":[[2],[0],[3],[1]],"initial_angle":4.448336407135132,"final_object_specifier":[[2],[0],[3],[1]],"final_angle":5.840336407135132,"verb_supp_check":true,"consonant_correct_count":1,"verb_supp_consonants":[["c"],["v"],["g"],["f"]],"experiment_trial_type":"correct","practice_trial":false,"trial_type":"rotation","trial_index":0,"trial_index_global":31,"time_elapsed":277239,"internal_chunk_id":"0-0.6-0"},{"prompt":"Press E if the figure is incorrect, and press I if the figure is correct.","correct_response":"incorrect","response":69,"trial_time":7510,"rt":7510,"response_choices":[69,73],"response_mappings":["incorrect","correct"],"rotation_speed":-0.00087,"rotation_time":1600,"object_specifier":[[3],[2],[0],[1]],"initial_angle":5.645364052095586,"final_object_specifier":[[3],[2],[0],[1]],"final_angle":3.5573640520955863,"verb_supp_check":false,"consonant_correct_count":0,"verb_supp_consonants":[["x"],["c"],["t"],["l"]],"experiment_trial_type":"rotate","practice_trial":false,"trial_type":"rotation","trial_index":0,"trial_index_global":32,"time_elapsed":285253,"internal_chunk_id":"0-0.6-0"},{"prompt":"Press E if the figure is incorrect, and press I if the figure is correct.","correct_response":"incorrect","response":73,"trial_time":12005,"rt":12005,"response_choices":[69,73],"response_mappings":["incorrect","correct"],"rotation_speed":0,"rotation_time":800,"object_specifier":[[0],[3],[2],[1]],"initial_angle":5.902723087560999,"final_object_specifier":[[0],[1],[2],[3]],"final_angle":5.902723087560999,"verb_supp_check":true,"consonant_correct_count":4,"verb_supp_consonants":[["r"],["t"],["g"],["b"]],"experiment_trial_type":"swap","practice_trial":false,"trial_type":"rotation","trial_index":0,"trial_index_global":33,"time_elapsed":297762,"internal_chunk_id":"0-0.6-0"},{"prompt":"Press E if the figure is incorrect, and press I if the figure is correct.","correct_response":"incorrect","response":69,"trial_time":7036,"rt":7036,"response_choices":[69,73],"response_mappings":["incorrect","correct"],"rotation_speed":-0.00087,"rotation_time":1600,"object_specifier":[[1],[0],[3],[2]],"initial_angle":5.843394790104987,"final_object_specifier":[[1],[2],[3],[0]],"final_angle":4.451394790104986,"verb_supp_check":false,"consonant_correct_count":0,"verb_supp_consonants":[["x"],["t"],["j"],["l"]],"experiment_trial_type":"swap","practice_trial":false,"trial_type":"rotation","trial_index":0,"trial_index_global":34,"time_elapsed":305303,"internal_chunk_id":"0-0.6-0"},{"prompt":"Press E if the figure is incorrect, and press I  if the  figure is correct.","correct_response":"correct","response":73,"trial_time":13026,"rt":13026,"response_choices":[69,73],"response_mappings":["incorrect","correct"],"rotation_speed":-0.00087,"rotation_time":2400,"object_specifier":[[1],[2],[0],[3]],"initial_angle":1.0122742124612651,"final_object_specifier":[[1],[2],[0],[3]],"final_angle":-1.075725787538735,"verb_supp_check":true,"consonant_correct_count":4,"verb_supp_consonants":[["q"],["m"],["b"],["r"]],"experiment_trial_type":"correct","practice_trial":false,"trial_type":"rotation","trial_index":0,"trial_index_global":35,"time_elapsed":318833,"internal_chunk_id":"0-0.6-0"},{"prompt":"Press E if the figure is incorrect, and press I if the figure is correct.","correct_response":"incorrect","response":69,"trial_time":12112,"rt":12112,"response_choices":[69,73],"response_mappings":["incorrect","correct"],"rotation_speed":-0.00087,"rotation_time":2400,"object_specifier":[[3],[2],[1],[0]],"initial_angle":2.5391541261898527,"final_object_specifier":[[3],[2],[1],[0]],"final_angle":1.8431541261898527,"verb_supp_check":true,"consonant_correct_count":4,"verb_supp_consonants":[["r"],["s"],["l"],["m"]],"experiment_trial_type":"rotate","practice_trial":false,"trial_type":"rotation","trial_index":0,"trial_index_global":36,"time_elapsed":331449,"internal_chunk_id":"0-0.6-0"},{"prompt":"Press E if the figure is incorrect, and press I if the figure is correct.","correct_response":"correct","response":73,"trial_time":8131,"rt":8131,"response_choices":[69,73],"response_mappings":["incorrect","correct"],"rotation_speed":0.00087,"rotation_time":1600,"object_specifier":[[3],[1],[0],[2]],"initial_angle":2.8003565385701985,"final_object_specifier":[[3],[1],[0],[2]],"final_angle":4.192356538570198,"verb_supp_check":false,"consonant_correct_count":0,"verb_supp_consonants":[["w"],["n"],["f"],["r"]],"experiment_trial_type":"correct","practice_trial":false,"trial_type":"rotation","trial_index":0,"trial_index_global":37,"time_elapsed":340084,"internal_chunk_id":"0-0.6-0"},{"prompt":"Press E if the figure is incorrect, and press I if the figure is correct.","correct_response":"incorrect","response":73,"trial_time":8616,"rt":8616,"response_choices":[69,73],"response_mappings":["incorrect","correct"],"rotation_speed":0.00087,"rotation_time":2400,"object_specifier":[[2],[1],[0],[3]],"initial_angle":5.337020017471738,"final_object_specifier":[[0],[1],[2],[3]],"final_angle":7.425020017471738,"verb_supp_check":false,"consonant_correct_count":0,"verb_supp_consonants":[["n"],["x"],["v"],["p"]],"experiment_trial_type":"swap","practice_trial":false,"trial_type":"rotation","trial_index":0,"trial_index_global":38,"time_elapsed":349210,"internal_chunk_id":"0-0.6-0"},{"prompt":"Press E if the figure is incorrect, and press I if the figure is correct.","correct_response":"correct","response":69,"trial_time":12064,"rt":12064,"response_choices":[69,73],"response_mappings":["incorrect","correct"],"rotation_speed":-0.00087,"rotation_time":800,"object_specifier":[[1],[0],[3],[2]],"initial_angle":2.7378221054629095,"final_object_specifier":[[1],[0],[3],[2]],"final_angle":2.0418221054629093,"verb_supp_check":true,"consonant_correct_count":4,"verb_supp_consonants":[["z"],["l"],["n"],["p"]],"experiment_trial_type":"correct","practice_trial":false,"trial_type":"rotation","trial_index":0,"trial_index_global":39,"time_elapsed":361803,"internal_chunk_id":"0-0.6-0"},{"prompt":"Press E if the figure is incorrect, and press I if the figure is correct.","correct_response":"correct","response":73,"trial_time":8181,"rt":8181,"response_choices":[69,73],"response_mappings":["incorrect","correct"],"rotation_speed":0,"rotation_time":2400,"object_specifier":[[0],[1],[2],[3]],"initial_angle":1.0348564449876072,"final_object_specifier":[[0],[1],[2],[3]],"final_angle":1.0348564449876072,"verb_supp_check":false,"consonant_correct_count":0,"verb_supp_consonants":[["x"],["r"],["p"],["m"]],"experiment_trial_type":"correct","practice_trial":false,"trial_type":"rotation","trial_index":0,"trial_index_global":40,"time_elapsed":370505,"internal_chunk_id":"0-0.6-0"},{"prompt":"Press E if the figure is incorrect, and press I if the figure is correct.","correct_response":"incorrect","response":73,"trial_time":7339,"rt":7339,"response_choices":[69,73],"response_mappings":["incorrect","correct"],"rotation_speed":0,"rotation_time":1600,"object_specifier":[[2],[1],[0],[3]],"initial_angle":6.077549244286448,"final_object_specifier":[[2],[3],[0],[1]],"final_angle":6.077549244286448,"verb_supp_check":false,"consonant_correct_count":0,"verb_supp_consonants":[["l"],["p"],["z"],["j"]],"experiment_trial_type":"swap","practice_trial":false,"trial_type":"rotation","trial_index":0,"trial_index_global":41,"time_elapsed":378348,"internal_chunk_id":"0-0.6-0"},{"prompt":"Press E if the figure is incorrect, and press I if the figure is correct.","correct_response":"correct","response":73,"trial_time":7122,"rt":7122,"response_choices":[69,73],"response_mappings":["incorrect","correct"],"rotation_speed":0.00087,"rotation_time":800,"object_specifier":[[1],[2],[3],[0]],"initial_angle":0.7155675258482436,"final_object_specifier":[[1],[2],[3],[0]],"final_angle":1.4115675258482434,"verb_supp_check":false,"consonant_correct_count":0,"verb_supp_consonants":[["r"],["p"],["t"],["s"]],"experiment_trial_type":"correct","practice_trial":false,"trial_type":"rotation","trial_index":0,"trial_index_global":42,"time_elapsed":385974,"internal_chunk_id":"0-0.6-0"},{"prompt":"Press E if the figure is incorrect, and press I if the figure is correct.","correct_response":"correct","response":69,"trial_time":6769,"rt":6769,"response_choices":[69,73],"response_mappings":["incorrect","correct"],"rotation_speed":0.00087,"rotation_time":800,"object_specifier":[[1],[3],[2],[0]],"initial_angle":3.4306780183098806,"final_object_specifier":[[1],[3],[2],[0]],"final_angle":4.126678018309881,"verb_supp_check":false,"consonant_correct_count":0,"verb_supp_consonants":[["n"],["w"],["q"],["k"]],"experiment_trial_type":"correct","practice_trial":false,"trial_type":"rotation","trial_index":0,"trial_index_global":43,"time_elapsed":393247,"internal_chunk_id":"0-0.6-0"},{"prompt":"Press E if the figure is incorrect, and press I if the figure is correct.","correct_response":"correct","response":73,"trial_time":6596,"rt":6596,"response_choices":[69,73],"response_mappings":["incorrect","correct"],"rotation_speed":0,"rotation_time":800,"object_specifier":[[0],[3],[2],[1]],"initial_angle":6.1272243188012645,"final_object_specifier":[[0],[3],[2],[1]],"final_angle":6.1272243188012645,"verb_supp_check":false,"consonant_correct_count":0,"verb_supp_consonants":[["b"],["r"],["c"],["k"]],"experiment_trial_type":"correct","practice_trial":false,"trial_type":"rotation","trial_index":0,"trial_index_global":44,"time_elapsed":400348,"internal_chunk_id":"0-0.6-0"},{"prompt":"Press E if the figure is incorrect, and press I if the figure is correct.","correct_response":"correct","response":73,"trial_time":12230,"rt":12230,"response_choices":[69,73],"response_mappings":["incorrect","correct"],"rotation_speed":0,"rotation_time":2400,"object_specifier":[[2],[0],[3],[1]],"initial_angle":5.481832287106887,"final_object_specifier":[[2],[0],[3],[1]],"final_angle":5.481832287106887,"verb_supp_check":true,"consonant_correct_count":4,"verb_supp_consonants":[["m"],["d"],["q"],["x"]],"experiment_trial_type":"correct","practice_trial":false,"trial_type":"rotation","trial_index":0,"trial_index_global":45,"time_elapsed":413081,"internal_chunk_id":"0-0.6-0"},{"prompt":"Press E if the figure is incorrect, and press I if the figure is correct.","correct_response":"incorrect","response":69,"trial_time":12594,"rt":12594,"response_choices":[69,73],"response_mappings":["incorrect","correct"],"rotation_speed":-0.00087,"rotation_time":800,"object_specifier":[[2],[0],[1],[3]],"initial_angle":3.2437292563321214,"final_object_specifier":[[3],[0],[1],[2]],"final_angle":2.547729256332121,"verb_supp_check":true,"consonant_correct_count":4,"verb_supp_consonants":[["y"],["b"],["q"],["f"]],"experiment_trial_type":"swap","practice_trial":false,"trial_type":"rotation","trial_index":0,"trial_index_global":46,"time_elapsed":426180,"internal_chunk_id":"0-0.6-0"},{"prompt":"Press E if the figure is incorrect, and press I if the figure is correct.","correct_response":"correct","response":69,"trial_time":6729,"rt":6729,"response_choices":[69,73],"response_mappings":["incorrect","correct"],"rotation_speed":0,"rotation_time":800,"object_specifier":[[0],[1],[3],[2]],"initial_angle":0.06144513113920406,"final_object_specifier":[[0],[1],[3],[2]],"final_angle":0.06144513113920406,"verb_supp_check":false,"consonant_correct_count":0,"verb_supp_consonants":[["c"],["k"],["p"],["z"]],"experiment_trial_type":"correct","practice_trial":false,"trial_type":"rotation","trial_index":0,"trial_index_global":47,"time_elapsed":433413,"internal_chunk_id":"0-0.6-0"},{"prompt":"Pre ss E if the figure is incorrect, and press I if the figure is correct.","correct_response":"incorrect","response":73,"trial_time":6800,"rt":6800,"response_choices":[69,73],"response_mappings":["incorrect","correct"],"rotation_speed":0.00087,"rotation_time":800,"object_specifier":[[0],[1],[3],[2]],"initial_angle":0.8881234677815627,"final_object_specifier":[[3],[1],[0],[2]],"final_angle":1.5841234677815628,"verb_supp_check":false,"consonant_correct_count":0,"verb_supp_consonants":[["g"],["d"],["c"],["m"]],"experiment_trial_type":"swap","practice_trial":false,"trial_type":"rotation","trial_index":0,"trial_index_global":48,"time_elapsed":440716,"internal_chunk_id":"0-0.6-0"},{"prompt":"Press E if the figure is incorrect, and press I if the figure is correct.","correct_response":"incorrect","response":69,"trial_time":7647,"rt":7647,"response_choices":[69,73],"response_mappings":["incorrect","correct"],"rotation_speed":0.00087,"rotation_time":1600,"object_specifier":[[3],[0],[2],[1]],"initial_angle":0.8807989485602229,"final_object_specifier":[[3],[0],[2],[1]],"final_angle":2.968798948560223,"verb_supp_check":false,"consonant_correct_count":0,"verb_supp_consonants":[["w"],["q"],["f"],["p"]],"experiment_trial_type":"rotate","practice_trial":false,"trial_type":"rotation","trial_index":0,"trial_index_global":49,"time_elapsed":448867,"internal_chunk_id":"0-0.6-0"},{"prompt":"Press E if the figure is incorrect, and press I if the figure is correct.","correct_response":"correct","response":69,"trial_time":6837,"rt":6837,"response_choices":[69,73],"response_mappings":["incorrect","correct"],"rotation_speed":-0.00087,"rotation_time":800,"object_specifier":[[3],[0],[1],[2]],"initial_angle":2.507317147663335,"final_object_specifier":[[3],[0],[1],[2]],"final_angle":1.811317147663335,"verb_supp_check":false,"consonant_correct_count":0,"verb_supp_consonants":[["f"],["t"],["l"],["j"]],"experiment_trial_type":"correct","practice_trial":false,"trial_type":"rotation","trial_index":0,"trial_index_global":50,"time_elapsed":456209,"internal_chunk_id":"0-0.6-0"},{"prompt":"Press E if the figure is incorrect, and press I if the figure is correct.","correct_response":"incorrect","response":73,"trial_time":8037,"rt":8037,"response_choices":[69,73],"response_mappings":["incorrect","correct"],"rotation_speed":0.00087,"rotation_time":2400,"object_specifier":[[2],[0],[1],[3]],"initial_angle":1.8295545190550924,"final_object_specifier":[[2],[0],[1],[3]],"final_angle":3.2215545190550925,"verb_supp_check":false,"consonant_correct_count":0,"verb_supp_consonants":[["x"],["k"],["j"],["y"]],"experiment_trial_type":"rotate","practice_trial":false,"trial_type":"rotation","trial_index":0,"trial_index_global":51,"time_elapsed":464749,"internal_chunk_id":"0-0.6-0"},{"prompt":"Press E if the figure is incorrect, and press I if the figure is correct.","correct_response":"incorrect","response":73,"trial_time":7995,"rt":7995,"response_choices":[69,73],"response_mappings":["inco rrect"," correct"],"rotation_speed":0,"rotation_time":2400,"object_specifier":[[0],[1],[2],[3]],"initial_angle":3.6826815037922835,"final_object_specifier":[[0],[2],[1],[3]],"final_angle":3.6826815037922835,"verb_supp_check":false,"consonant_correct_count":0,"verb_supp_consonants":[["q"],["k"],["j"],["c"]],"experiment_trial_type":"swap","practice_trial":false,"trial_type":"rotation","trial_index":0,"trial_index_global":52,"time_elapsed":473248,"internal_chunk_id":"0-0.6-0"},{"prompt":"Press E if the figure is incorrect, and press I if the figure is correct.","correct_response":"incorrect","response":69,"trial_time":11536,"rt":11536,"response_choices":[69,73],"response_mappings":["incorrect","correct"],"rotation_speed":0.00087,"rotation_time":800,"object_specifier":[[0],[3],[1],[2]],"initial_angle":4.673076314922947,"final_object_specifier":[[0],[3],[1],[2]],"final_angle":6.761076314922947,"verb_supp_check":true,"consonant_correct_count":4,"verb_supp_consonants":[["b"],["p"],["l"],["z"]],"experiment_trial_type":"rotate","practice_trial":false,"trial_type":"rotation","trial_index":0,"trial_index_global":53,"time_elapsed":485288,"internal_chunk_id":"0-0.6-0"},{"prompt":"Press E if the figure is incorrect, and press I if the figure is correct.","correct_response":"correct","response":73,"trial_time":7659,"rt":7659,"response_choices":[69,73],"response_mappings":["incorrect","correct"],"rotation_speed":0,"rotation_time":1600,"object_specifier":[[2],[3],[0],[1]],"initial_angle":3.944951375310873,"final_object_specifier":[[2],[3],[0],[1]],"final_angle":3.944951375310873,"verb_supp_check":false,"consonant_correct_count":0,"verb_supp_consonants":[["b"],["f"],["s"],["z"]],"experiment_trial_type":"correct","practice_trial":false,"trial_type":"rotation","trial_index":0,"trial_index_global":54,"time_elapsed":493451,"internal_chunk_id":"0-0.6-0"},{"prompt":"Press E if the figure is incorrect, and press I if the figure is correct.","correct_response":"correct","response":73,"trial_time":8501,"rt":8501,"response_choices":[69,73],"response_mappings":["incorrect","correct"],"rotation_speed":0.00087,"rotation_time":2400,"object_specifier":[[2],[1],[3],[0]],"initial_angle":0.3423065775286547,"final_object_specifier":[[2],[1],[3],[0]],"final_angle":2.430306577528655,"verb_supp_check":false,"consonant_correct_count":0,"verb_supp_consonants":[["q"],["j"],["k"],["x"]],"experiment_trial_type":"correct","practice_trial":false,"trial_type":"rotation","trial_index":0,"trial_index_global":55,"time_elapsed":502456,"internal_chunk_id":"0-0.6-0"},{"prompt":"Press E if the figure is incorrect, and press I if the figure is correct.","correct_response":"correct","response":69,"trial_time":8505,"rt":8505,"response_choices":[69,73],"response_mappings":["incorrect","correct"],"rotation_speed":-0.00087,"rotation_time":1600,"object_specifier":[[1],[2],[3],[0]],"initial_angle":3.7170465846986986,"final_object_specifier":[[1],[2],[3],[0]],"final_angle":2.3250465846986987,"verb_supp_check":false,"consonant_correct_count":0,"verb_supp_consonants":[["m"],["v"],["c"],["r"]],"experiment_trial_type":"correct","practice_trial":false,"trial_type":"rotation","trial_index":0,"trial_index_global":56,"time_elapsed":511466,"internal_chunk_id":"0-0.6-0"},{"prompt":"Press E if the figure is incorrect, and press I if the figure is correct.","correct_response":"correct","response":69,"trial_time":8772,"rt":8772,"response_choices":[69,73],"response_mappings":["incorrect","correct"],"rotation_speed":0.00087,"rotation_time":2400,"object_specifier":[[1],[2],[3],[0]],"initial_angle":6.1065206413242805,"final_object_specifier":[[1],[2],[3],[0]],"final_angle":8.194520641324281,"verb_supp_check":false,"consonant_correct_count":0,"verb_supp_consonants":[["y"],["t"],["c"],["w"]],"experiment_trial_type":"correct","practice_trial":false,"trial_type":"rotation","trial_index":0,"trial_index_global":57,"time_elapsed":520741,"internal_chunk_id":"0-0.7-0"},{"prompt":"Press E if the figure is  incorre ct, and press I if the figure is correct.","correct_response":"incorrect","response":73,"trial_time":7881,"rt":7881,"response_choices":[69,73],"response_mappings":["incorrect","correct"],"rotation_speed":0.00087,"rotation_time":1600,"object_specifier":[[3],[0],[2],[1]],"initial_angle":5.874238107858687,"final_object_specifier":[[3],[0],[2],[1]],"final_angle":7.9622381078586875,"verb_supp_check":false,"consonant_correct_count":0,"verb_supp_consonants":[["g"],["f"],["p"],["m"]],"experiment_trial_type":"rotate","practice_trial":false,"trial_type":"rotation","trial_index":0,"trial_index_global":58,"time_elapsed":529126,"internal_chunk_id":"0-0.7-0"},{"prompt":"Press E if the figure is incorrect, and press I if the figure is correct.","correct_response":"incorrect","response":69,"trial_time":11058,"rt":11058,"response_choices":[69,73],"response_mappings":["incorrect","correct"],"rotation_speed":-0.00087,"rotation_time":800,"object_specifier":[[2],[0],[3],[1]],"initial_angle":4.012368547666708,"final_object_specifier":[[2],[0],[1],[3]],"final_angle":3.316368547666708,"verb_supp_check":true,"consonant_correct_count":4,"verb_supp_consonants":[["h"],["g"],["j"],["w"]],"experiment_trial_type":"swap","practice_trial":false,"trial_type":"rotation","trial_index":0,"trial_index_global":59,"time_elapsed":540688,"internal_chunk_id":"0-0.7-0"},{"prompt":"Press E if the figure is incorrect, and press I if the figure is correct.","correct_response":"incorrect","response":73,"trial_time":6631,"rt":6631,"response_choices":[69,73],"response_mappings":["incorrect","correct"],"rotation_speed":0,"rotation_time":800,"object_specifier":[[3],[1],[2],[0]],"initial_angle":0.2472251034950417,"final_object_specifier":[[3],[0],[2],[1]],"final_angle":0.2472251034950417,"verb_supp_check":false,"consonant_correct_count":0,"verb_supp_consonants":[["j"],["w"],["p"],["q"]],"experiment_trial_type":"swap","practice_trial":false,"trial_type":"rotation","trial_index":0,"trial_index_global":60,"time_elapsed":547837,"internal_chunk_id":"0-0.7-0"},{"prompt":"Press E if the figure is incorrect, and press I if the figure is correct.","correct_response":"correct","response":73,"trial_time":7670,"rt":7670,"response_choices":[69,73],"response_mappings":["incorrect","correct"],"rotation_speed":0.00087,"rotation_time":1600,"object_specifier":[[2],[0],[3],[1]],"initial_angle":2.8195287441638026,"final_object_specifier":[[2],[0],[3],[1]],"final_angle":4.211528744163802,"verb_supp_check":false,"consonant_correct_count":0,"verb_supp_consonants":[["x"],["b"],["r"],["l"]],"experiment_trial_type":"correct","practice_trial":false,"trial_type":"rotation","trial_index":0,"trial_index_global":61,"time_elapsed":556012,"internal_chunk_id":"0-0.7-0"},{"prompt":"Press E if the figure is incorrect, and press I if the figure is correct.","correct_response":"correct","response":73,"trial_time":9714,"rt":9714,"response_choices":[69,73],"response_mappings":["incorrect","correct"],"rotation_speed":0.00087,"rotation_time":800,"object_specifier":[[2],[3],[1],[0]],"initial_angle":2.3542182107523737,"final_object_specifier":[[2],[3],[1],[0]],"final_angle":3.050218210752374,"verb_supp_check":true,"consonant_correct_count":4,"verb_supp_consonants":[["s"],["l"],["t"],["m"]],"experiment_trial_type":"correct","practice_trial":false,"trial_type":"rotation","trial_index":0,"trial_index_global":62,"time_elapsed":566230,"internal_chunk_id":"0-0.7-0"},{"prompt":"Press E if the figure is incorrect, and press I if the figure is correct.","correct_response":"correct","response":69,"trial_time":8755,"rt":8755,"response_choices":[69,73],"response_mappings":["incorrect","correct"],"rotation_speed":-0.00087,"rotation_time":2400,"object_specifier":[[3],[0],[1],[2]],"initial_angle":1.1627994478357984,"final_object_specifier":[[3],[0],[1],[2]],"final_angle":-0.9252005521642017,"verb_supp_check":false,"consonant_correct_count":0,"verb_supp_consonants":[["y"],["p"],["m"],["b"]],"experiment_trial_type":"co rrect","practice_trial":false,"trial_type":"rotation","trial_index":0,"trial_index_global":63,"time_elapsed":575489,"internal_chunk_id":"0-0.7-0"},{"prompt":"Press E if the figure is incorrect, and press I if the figure is correct.","correct_response":"correct","response":73,"trial_time":7174,"rt":7174,"response_choices":[69,73],"response_mappings":["incorrect","correct"],"rotation_speed":0.00087,"rotation_time":1600,"object_specifier":[[3],[2],[0],[1]],"initial_angle":2.5156524906123976,"final_object_specifier":[[3],[2],[0],[1]],"final_angle":3.9076524906123975,"verb_supp_check":false,"consonant_correct_count":0,"verb_supp_consonants":[["x"],["s"],["z"],["g"]],"experiment_trial_type":"correct","practice_trial":false,"trial_type":"rotation","trial_index":0,"trial_index_global":64,"time_elapsed":583168,"internal_chunk_id":"0-0.7-0"},{"prompt":"Press E if the figure is incorrect, and press I if the figure is correct.","correct_response":"incorrect","response":73,"trial_time":6553,"rt":6553,"response_choices":[69,73],"response_mappings":["incorrect","correct"],"rotation_speed":0.00087,"rotation_time":800,"object_specifier":[[1],[0],[3],[2]],"initial_angle":2.3814701523965582,"final_object_specifier":[[1],[0],[2],[3]],"final_angle":3.0774701523965584,"verb_supp_check":false,"consonant_correct_count":0,"verb_supp_consonants":[["f"],["t"],["q"],["l"]],"experiment_trial_type":"swap","practice_trial":false,"trial_type":"rotation","trial_index":0,"trial_index_global":65,"time_elapsed":590224,"internal_chunk_id":"0-0.7-0"},{"prompt":"Press E if the figure is incorrect, and press I if the figure is correct.","correct_response":"incorrect","response":69,"trial_time":8623,"rt":8623,"response_choices":[69,73],"response_mappings":["incorrect","correct"],"rotation_speed":-0.00087,"rotation_time":2400,"object_specifier":[[2],[3],[0],[1]],"initial_angle":1.5395724309028742,"final_object_specifier":[[2],[3],[0],[1]],"final_angle":0.1475724309028743,"verb_supp_check":false,"consonant_correct_count":0,"verb_supp_consonants":[["q"],["t"],["j"],["m"]],"experiment_trial_type":"rotate","practice_trial":false,"trial_type":"rotation","trial_index":0,"trial_index_global":66,"time_elapsed":599350,"internal_chunk_id":"0-0.7-0"},{"prompt":"Press E if the figure is incorrect, and press I if the figure is correct.","correct_response":"correct","response":69,"trial_time":7972,"rt":7972,"response_choices":[69,73],"response_mappings":["incorrect","correct"],"rotation_speed":-0.00087,"rotation_time":1600,"object_specifier":[[3],[1],[0],[2]],"initial_angle":4.828081685713103,"final_object_specifier":[[3],[1],[0],[2]],"final_angle":3.4360816857131034,"verb_supp_check":false,"consonant_correct_count":0,"verb_supp_consonants":[["g"],["b"],["q"],["x"]],"experiment_trial_type":"correct","practice_trial":false,"trial_type":"rotation","trial_index":0,"trial_index_global":67,"time_elapsed":607827,"internal_chunk_id":"0-0.7-0"},{"prompt":"Press E if the figure is incorrect, and press  I if th e figure is correct.","correct_response":"correct","response":73,"trial_time":8752,"rt":8752,"response_choices":[69,73],"response_mappings":["incorrect","correct"],"rotation_speed":-0.00087,"rotation_time":1600,"object_specifier":[[2],[0],[3],[1]],"initial_angle":0.17980060923422017,"final_object_specifier":[[2],[0],[3],[1]],"final_angle":-1.2121993907657798,"verb_supp_check":false,"consonant_correct_count":0,"verb_supp_consonants":[["g"],["v"],["b"],["n"]],"experiment_trial_type":"correct","practice_trial":false,"trial_type":"rotation","trial_index":0,"trial_index_global":68,"time_elapsed":617082,"internal_chunk_id":"0-0.7-0"},{"prompt":"Press E if the figure is incorrect, and press I if the figure is correct.","correct_response":"correct","response":73,"trial_time":13114,"rt":13114,"response_choices":[69,73],"response_mappings":["incorrect","correct"],"rotation_speed":0,"rotation_time":800,"object_specifier":[[0],[3],[2],[1]],"initial_angle":2.874351919563399,"final_object_specifier":[[0],[3],[2],[1]],"final_angle":2.874351919563399,"verb_supp_check":true,"consonant_correct_count":1,"verb_supp_consonants":[["q"],["y"],["l"],["x"]],"experiment_trial_type":"correct","practice_trial":false,"trial_type":"rotation","trial_index":0,"trial_index_global":69,"time_elapsed":630700,"internal_chunk_id":"0-0.7-0"},{"prompt":"Press E if the figure is incorrect, and press I if the figure is correct.","correct_response":"incorrect","response":69,"trial_time":13467,"rt":13467,"response_choices":[69,73],"response_mappings":["incorrect","correct"],"rotation_speed":-0.00087,"rotation_time":1600,"object_specifier":[[1],[2],[0],[3]],"initial_angle":3.4668110430296806,"final_object_specifier":[[0],[2],[1],[3]],"final_angle":2.0748110430296807,"verb_supp_check":true,"consonant_correct_count":4,"verb_supp_consonants":[["h"],["j"],["p"],["r"]],"experiment_trial_type":"swap","practice_trial":false,"trial_type":"rotation","trial_index":0,"trial_index_global":70,"time_elapsed":644671,"internal_chunk_id":"0-0.7-0"},{"prompt":"Press E if the figure is incorrect, and press I if the figure is correct.","correct_response":"incorrect","response":73,"trial_time":9041,"rt":9041,"response_choices":[69,73],"response_mappings":["incorrect","correct"],"rotation_speed":0.00087,"rotation_time":2400,"object_specifier":[[3],[2],[0],[1]],"initial_angle":4.767741223033489,"final_object_specifier":[[3],[2],[1],[0]],"final_angle":6.855741223033489,"verb_supp_check":false,"consonant_correct_count":0,"verb_supp_consonants":[["p"],["f"],["r"],["h"]],"experiment_trial_type":"swap","practice_trial":false,"trial_type":"rotation","trial_index":0,"trial_index_global":71,"time_elapsed":654216,"internal_chunk_id":"0-0.7-0"},{"prompt":"Press E if the figure is incorrect, and press I if the figure is correct.","correct_response":"incorrect","response":69,"trial_time":7540,"rt":7540,"response_choices":[69,73],"response_mappings":["incorrect","correct"],"rotation_speed":0.00087,"rotation_time":1600,"object_specifier":[[1],[2],[0],[3]],"initial_angle":2.6770030403561544,"final_object_specifier":[[0],[2],[1],[3]],"final_angle":4.069003040356154,"verb_supp_check":false,"consonant_correct_count":0,"verb_supp_consonants":[["w"],["f"],["k"],["m"]],"experiment_trial_type":"swap","practice_trial":false,"trial_type":"rotation","trial_index":0,"trial_index_global":72,"time_elapsed":662260,"internal_chunk_id":"0-0.7-0"},{"prompt":"Press E if the figure is incorrect, and press I if the figure is correct.","correct_response":"incorrect","response":73,"trial_time":8493,"rt":8493,"response_choices":[69,73],"response_mappings":["incorrect","correct"],"rotation_speed":0.00087,"rotation_time":2400,"object_specifier":[[1],[2],[3],[0]],"initial_angle":5.5041751467366735,"final_object_specifier":[[1],[2],[3],[0]],"final_angle":6.896175146736674,"verb_supp_check":false,"consonant_correct_count":0,"verb_supp_consonants":[["w"],["t"],["h"],["l"]],"experiment_trial_type":"rotate","practice_trial":false,"trial_type":"rotation","trial_index":0,"trial_index_global":73,"time_elapsed":671258,"internal_chunk_id":"0-0.7-0"},{"prompt":"Press E if the figure is incorrect, and press I if the figure is correct.","correct_response":"correct","response":69,"trial_time":8277,"rt":8277,"response_choices":[69,73],"response_mappings":["incorrect","correct"],"rotation_speed":0,"rotation_time":2400,"object_specifier":[[3],[2],[1],[0]],"initial_angle":4.941920170171489,"final_object_specifier":[[3],[2],[1],[0]],"final_angle":4.941920170171489,"verb_supp_check":false,"consonant_correct_count":0,"verb_supp_consonants":[["j"],["h"],["p"],["l"]],"experiment_trial_type":"correct","practice_trial":false,"trial_type":"rotation","trial_index":0,"trial_index_global":74,"time_elapsed":680040,"internal_chunk_id":"0-0.7-0"},{"prompt":"Press E if the figure is incorrect, and press I if the figure is correct.","correct_response":"incorrect","response":69,"trial_time":6406,"rt":6406,"response_choices":[69,73],"response_mappings":["incorrect","correct"],"rotation_speed":0.00087,"rotation_time":800,"object_specifier":[[1],[3],[2],[0]],"initial_angle":3.741807333386126,"final_object_specifier":[[1],[3],[2],[0]],"final_angle":5.133807333386126,"verb_supp_check":false,"consonant_correct_count":0,"verb_supp_consonants":[["k"],["s"],["x"],["d"]],"experiment_trial_type":"rotate","practice_trial":false,"trial_type":"rotation","trial_index":0,"trial_index_global":75,"time_elapsed":686950,"internal_chunk_id":"0-0.7-0"},{"prompt":"Press E if the figure is incorrect, and press I if the figure is correct.","correct_response":"correct","response":69,"trial_time":7069,"rt":7069,"response_choices":[69,73],"response_mappings":["incorrect","correct"],"rotation_speed":0,"rotation_time":1600,"object_specifier":[[3],[2],[1],[0]],"initial_angle":0.3768815184222949,"final_object_specifier":[[3],[2],[1],[0]],"final_angle":0.3768815184222949,"verb_supp_check":false,"consonant_correct_count":0,"verb_supp_consonants":[["x"],["y"],["b"],["h"]],"experiment_trial_type":"correct","practice_trial":false,"trial_type":"rotation","trial_index":0,"trial_index_global":76,"time_elapsed":694523,"internal_chunk_id":"0-0.7-0"},{"prompt":"Press E if the figure is incorrect, and press I if the figure is correct.","correct_response":"incorrect","response":73,"trial_time":6996,"rt":6996,"response_choices":[69,73],"response_mappings":["incorrect","correct"],"rotation_speed":0,"rotation_time":1600,"object_specifier":[[1],[0],[2],[3]],"initial_angle":0.9745705125793974,"final_object_specifier":[[1],[3],[2],[0]],"final_angle":0.9745705125793974,"verb_supp_check":false,"consonant_correct_count":0,"verb_supp_consonants":[["c"],["x"],["h"],["l"]],"experiment_trial_type":"swap","practice_trial":false,"trial_type":"rotation","trial_index":0,"trial_index_global":77,"time_elapsed":702022,"internal_chunk_id":"0-0.7-0"},{"prompt":"Press E if the figure is incorrect, and press I if the figure is correct.","correct_response":"incorrect","response":69,"trial_time":6899,"rt":6899,"response_choices":[69,73],"response_mappings":["incorrect","correct"],"rotation_speed":-0.00087,"rotation_time":1600,"object_specifier":[[2],[3],[0],[1]],"initial_angle":4.320654969650759,"final_object_specifier":[[2],[3],[0],[1]],"final_angle":2.232654969650759,"verb_supp_check":false,"consonant_correct_count":0,"verb_supp_consonants":[["y"],["d"],["s"],["n"]],"experiment_trial_type":"rotate","practice_trial":false,"trial_type":"rotation","trial_index":0,"trial_index_global":78,"time_elapsed":709425,"internal_chunk_id":"0-0.7-0"},{"prompt":"Press E if the figure is incorrect, and press I if the figure is correct.","correct_response":"correct","response":73,"trial_time":7996,"rt":7996,"response_choices":[69,73],"response_mappings":["incorrect","correct"],"rotation_speed":0,"rotation_time":2400,"object_specifier":[[1],[2],[0],[3]],"initial_angle":4.534983378706433,"final_object_specifier":[[1],[2],[0],[3]],"final_angle":4.534983378706433,"verb_supp_check":false,"consonant_correct_count":0,"verb_supp_consonants":[["p"],["j"],["n"],["q"]],"experiment_trial_type":"correct","practice_trial":false,"trial_type":"rotation","trial_index":0,"trial_index_global":79,"time_elapsed":717925,"internal_chunk_id":"0-0.7-0"},{"prompt":"Press E if the figure is incorrect, and press I if the figure is correct.","correct_response":"correct","response":73,"trial_time":6657,"rt":6657,"response_choices":[69,73],"response_mappings":["incorrect","correct"],"rotation_speed":-0.00087,"rotation_time":800,"object_specifier":[[1],[2],[0],[3]],"initial_angle":5.902094859335629,"final_object_specifier":[[1],[2],[0],[3]],"final_angle":5.2060948593356295,"verb_supp_check":false,"consonant_correct_count":0,"verb_supp_consonants":[["x"],["t"],["j"],["p"]],"experiment_trial_type":"correct","practice_trial":false,"trial_type":"rotation","trial_index":0,"trial_index_global":80,"time_elapsed":725086,"internal_chunk_id":"0-0.7-0"},{"prompt":"Press  E if the figure is incorrect, and press I if the figure is correct.","correct_response":"correct","response":73,"trial_time":7932,"rt":7932,"response_choices":[69,73],"response_mappings":["incorrect","correct"],"rotation_speed":0.00087,"rotation_time":2400,"object_specifier":[[2],[0],[3],[1]],"initial_angle":4.993260491650526,"final_object_specifier":[[2],[0],[3],[1]],"final_angle":7.081260491650526,"verb_supp_check":false,"consonant_correct_count":0,"verb_supp_consonants":[["v"],["z"],["r"],["c"]],"experiment_trial_type":"correct","practice_trial":false,"trial_type":"rotation","trial_index":0,"trial_index_global":81,"time_elapsed":733522,"internal_chunk_id":"0-0.7-0"},{"prompt":"Press E if the figure is incorrect, and press I if the figure is correct.","correct_response":"correct","response":69,"trial_time":6691,"rt":6691,"response_choices":[69,73],"response_mappings":["incorrect","correct"],"rotation_speed":-0.00087,"rotation_time":800,"object_specifier":[[1],[0],[2],[3]],"initial_angle":4.327596325757532,"final_object_specifier":[[1],[0],[2],[3]],"final_angle":3.631596325757532,"verb_supp_check":false,"consonant_correct_count":0,"verb_supp_consonants":[["g"],["f"],["w"],["r"]],"experiment_trial_type":"correct","practice_trial":false,"trial_type":"rotation","trial_index":0,"trial_index_global":82,"time_elapsed":740718,"internal_chunk_id":"0-0.7-0"},{"prompt":"Press E if the figure is incorrect, and press I if the figure is correct.","correct_response":"correct","response":69,"trial_time":9017,"rt":9017,"response_choices":[69,73],"response_mappings":["incorrect","correct"],"rotation_speed":0,"rotation_time":800,"object_specifier":[[0],[1],[2],[3]],"initial_angle":3.559531560388543,"final_object_specifier":[[0],[1],[2],[3]],"final_angle":3.559531560388543,"verb_supp_check":false,"consonant_correct_count":0,"verb_supp_consonants":[["s"],["v"],["j"],["w"]],"experiment_trial_type":"correct","practice_trial":false,"trial_type":"rotation","trial_index":0,"trial_index_global":83,"time_elapsed":750239,"internal_chunk_id":"0-0.7-0"},{"prompt":"Press E if the figure is incorrect, and press I if the figure is correct.","correct_response":"correct","response":73,"trial_time":8626,"rt":8626,"response_choices":[69,73],"response_mappings":["incorrect","correct"],"rotation_speed":-0.00087,"rotation_time":2400,"object_specifier":[[3],[1],[2],[0]],"initial_angle":4.7140208289291605,"final_object_specifier":[[3],[1],[2],[0]],"final_angle":2.6260208289291604,"verb_supp_check":false,"consonant_correct_count":0,"verb_supp_consonants":[["w"],["m"],["s"],["g"]],"experiment_trial_type":"correct","practice_trial":false,"trial_type":"rotation","trial_index":0,"trial_index_global":84,"time_elapsed":759369,"internal_chunk_id":"0-0.7-0"},{"prompt":"Press E if the figure is incorrect, and press I if the figure is correct.","correct_response":"correct","response":69,"trial_time":7675,"rt":7675,"response_choices":[69,73],"response_mappings":["incorrect","correc t"],"rotation_speed":0,"rotation_time":1600,"object_specifier":[[0],[3],[1],[2]],"initial_angle":3.697668840577876,"final_object_specifier":[[0],[3],[1],[2]],"final_angle":3.697668840577876,"verb_supp_check":false,"consonant_correct_count":0,"verb_supp_consonants":[["f"],["b"],["s"],["w"]],"experiment_trial_type":"correct","practice_trial":false,"trial_type":"rotation","trial_index":0,"trial_index_global":85,"time_elapsed":767549,"internal_chunk_id":"0-0.7-0"},{"prompt":"Press E if the figure is incorrect, and press I if the figure is correct.","correct_response":"incorrect","response":69,"trial_time":8189,"rt":8189,"response_choices":[69,73],"response_mappings":["incorrect","correct"],"rotation_speed":0,"rotation_time":2400,"object_specifier":[[3],[2],[1],[0]],"initial_angle":4.137969758066987,"final_object_specifier":[[3],[0],[1],[2]],"final_angle":4.137969758066987,"verb_supp_check":false,"consonant_correct_count":0,"verb_supp_consonants":[["s"],["m"],["c"],["z"]],"experiment_trial_type":"swap","practice_trial":false,"trial_type":"rotation","trial_index":0,"trial_index_global":86,"time_elapsed":776241,"internal_chunk_id":"0-0.7-0"},{"prompt":"Press E if the figure is incorrect, and press I if the figure is correct.","correct_response":"correct","response":69,"trial_time":13527,"rt":13527,"response_choices":[69,73],"response_mappings":["incorrect","correct"],"rotation_speed":0.00087,"rotation_time":800,"object_specifier":[[3],[1],[0],[2]],"initial_angle":3.497440891777255,"final_object_specifier":[[3],[1],[0],[2]],"final_angle":4.1934408917772545,"verb_supp_check":true,"consonant_correct_count":4,"verb_supp_consonants":[["p"],["q"],["r"],["j"]],"experiment_trial_type":"correct","practice_trial":false,"trial_type":"rotation","trial_index":0,"trial_index_global":87,"time_elapsed":790272,"internal_chunk_id":"0-0.7-0"},{"prompt":"Press E if the figure is incorrect, and press I if the figure is correct.","correct_response":"incorrect","response":73,"trial_time":7584,"rt":7584,"response_choices":[69,73],"response_mappings":["incorrect","correct"],"rotation_speed":-0.00087,"rotation_time":800,"object_specifier":[[2],[1],[0],[3]],"initial_angle":3.972611055630439,"final_object_specifier":[[2],[1],[0],[3]],"final_angle":2.580611055630439,"verb_supp_check":false,"consonant_correct_count":0,"verb_supp_consonants":[["m"],["f"],["y"],["w"]],"experiment_trial_type":"rotate","practice_trial":false,"trial_type":"rotation","trial_index":0,"trial_index_global":88,"time_elapsed":798360,"internal_chunk_id":"0-0.7-0"},{"prompt":"Press E if the figure is incorrect, and press I if the figure is correct.","correct_response":"incorrect","response":73,"trial_time":9194,"rt":9194,"response_choices":[69,73],"response_mappings":["incorrect","correct"],"rotation_speed":-0.00087,"rotation_time":2400,"object_specifier":[[1],[0],[2],[3]],"initial_angle":5.683035204976027,"final_object_specifier":[[1],[2],[0],[3]],"final_angle":3.5950352049760266,"verb_supp_check":false,"consonant_correct_count":0,"verb_supp_consonants":[["r"],["k"],["b"],["g"]],"experiment_trial_type":"swap","practice_trial":false,"trial_type":"rotation","trial_index":0,"trial_index_global":89,"time_elapsed":808058,"internal_chunk_id":"0-0.7-0"},{"instructions":"Thanks for participating. We would like to ask you some final questions. Please press \"Continue\" to continue.","rt":2935,"trial_type":"instructions","trial_index":0,"trial_index_global":90,"time_elapsed":811509,"internal_chunk_id":"0-0.8-0"},{"question":"What is/are your native language(s)? (The languages spoken in your household when you were a child.)","response_type":"free","response_choices":[],"correct_response":"","response":"english","rt":8501,"trial_type":"question","trial_index":0,"trial_index_global":91,"time_elapsed":820013,"internal_chunk_id":"0-0.8-0"},{"question":"What is your gender?","response_type":"multi","response_choices":["female","male","other"],"correct_response":"","response":"female","rt":2050,"trial_type":"question","trial_index":0,"trial_index_global":92,"time_elapsed":822067,"internal_chunk_id":"0-0.8-0"},{"question":"How old are you?","response_type":"free","response_choices":[],"correct_response":"","response":"50","rt":4264,"trial_type":"question","trial_index":0,"trial_index_global":93,"time_elapsed":826335,"internal_chunk_id":"0-0.8-0"},{"question":"What is your race/ethnicity?","response_type":"multi","response_choices":["Asian or Pacific Islander","Black or African American","Hispanic/Latino","White","Other/Decline to state"],"correct_response":"","response":"White","rt":3445,"trial_type":"question","trial_index":0,"trial_index_global":94,"time_elapsed":829783,"internal_chunk_id":"0-0.8-0"},{"question":"What is your level of education?","response_type":"multi","response_choices":["Did not graduate high school","High school diploma","Some college, no degree","Associates Degree","Bachelors Degree","Some graduate school, no degree","Masters Degree","Doctorate, M.D. , etc."],"correct_response":"","response":"High school diploma","rt":3332,"trial_type":"question","trial_index":0,"trial_index_global":95,"time_elapsed":833120,"internal_chunk_id":"0-0.8-0"},{"question":"Do you have any comments on this HIT?","response_type":"free","response_choices":[],"correct_response":"","response":"","rt":2580,"trial_type":"question","trial_index":0,"trial_index_global":96,"time_elapsed":835703,"internal_chunk_id":"0-0.8-0"}]