[{"instructions":"Instructions: Please turn on your audio now. This experiment will consist of a training/practice phase, and then a set of testing trials. On each trial, you will be presented with a set of four consonants. Verbally rehearse these consonants during the remainder of the trial.<br /><br /> Next, you will be presented with a cue (a pinwheel), which will either be rotating or still. If the pinwheel is rotating, you will also hear a sound of rotation. If the pinwheel is rotating, try to remember the speed at which it is rotating (the total amount it rotates is irrelevant). <br /><br />Next, you will be shown an object consisting of four colored bars in the shape of a +. Then, the object will be hidden (pretend that a curtain drops between you and the image), and there will be a delay period. If the pinwheel was rotating, you will hear the rotation sound, and try to mentally rotate the object for the time that it is hidden, at the same rate that the pinwheel rotate d. <br / ><br />At an unpredictable point, the curtain will be raised, and the object will be revealed. Your task is to determine whether the object shown is the same as the original one (none of the bars of the + have been switched), and if it has rotated the correct amount. If the pinwheel was not rotating, you do not have to perform the mental rotation, and you only have to check if the object is the same, it will not have been rotated. <br /><br />You will respond by pressing 'e' if the object shown is correct and 'i' if the object shown is incorrect. If you respond incorrectly, you will hear a buzzer. You will be tested at the end of some (randomly chosen) trials on your memory of the consonants you were shown at the beginning. If you do not recall the consonants correctly, you will hear a buzzer, and be forced to wait for a few seconds before continuing with the experiment. <br /><br />This can all sound a little intimidating, but once you go through the training, it will seem  easier.< br /><br />Click continue when you are ready to begin the training phase of the experiment.","rt":1155,"trial_type":"instructions","trial_index":0,"trial_index_global":1,"time_elapsed":2042,"internal_chunk_id":"0-0"},{"prompt":"Press E if the figure is correct, and press I if the figure is incorrect.","correct_response":"correct","response":69,"trial_time":7046,"rt":7046,"response_choices":[69,73],"response_mappings":["correct","incorrect"],"rotation_speed":0.00087,"rotation_time":800,"object_specifier":[0,1,2,3],"initial_angle":0.5,"final_object_specifier":[0,1,2,3],"final_angle":1.196,"verb_supp_check":false,"consonant_correct_count":0,"verb_supp_consonants":[["m"],["n"],["v"],["h"]],"experiment_trial_type":"correct","practice_trial":true,"trial_type":"rotation","trial_index":0,"trial_index_global":2,"time_elapsed":9590,"internal_chunk_id":"0-0.2-0"},{"feedback":"Correct! The object was rotated correctly, and none of the bars changed positions.","rt":1682,"trial_type":"fee dback","trial_index":0,"trial_index_global":3,"time_elapsed":11774,"internal_chunk_id":"0-0.2-0"},{"prompt":"Press E if the figure is correct, and press I if the figure is incorrect.","correct_response":"incorrect","response":69,"trial_time":8057,"rt":8057,"response_choices":[69,73],"response_mappings":["correct","incorrect"],"rotation_speed":0,"rotation_time":1600,"object_specifier":[1,3,0,2],"initial_angle":0.1,"final_object_specifier":[1,0,3,2],"final_angle":0.1,"verb_supp_check":false,"consonant_correct_count":0,"verb_supp_consonants":[["v"],["h"],["k"],["d"]],"experiment_trial_type":"swap","practice_trial":true,"trial_type":"rotation","trial_index":0,"trial_index_global":4,"time_elapsed":20333,"internal_chunk_id":"0-0.2-0"},{"feedback":"Sorry, you responded 'Correct', but in fact the object's bars changed positions.","rt":2920,"trial_type":"feedback","trial_index":0,"trial_index_global":5,"time_elapsed":23754,"internal_chunk_id":"0-0.2-0"},{"prompt":"Press E if the figure is co rrect, a nd press I if the figure is incorrect.","correct_response":"incorrect","response":73,"trial_time":12799,"rt":12799,"response_choices":[69,73],"response_mappings":["correct","incorrect"],"rotation_speed":-0.00087,"rotation_time":2400,"object_specifier":[1,2,0,3],"initial_angle":0.6,"final_object_specifier":[1,2,0,3],"final_angle":-0.09599999999999997,"verb_supp_check":true,"consonant_correct_count":4,"verb_supp_consonants":[["g"],["p"],["v"],["k"]],"experiment_trial_type":"rotate","practice_trial":true,"trial_type":"rotation","trial_index":0,"trial_index_global":6,"time_elapsed":37056,"internal_chunk_id":"0-0.2-0"},{"feedback":"Correct! The object did not rotate the correct amount.","rt":1563,"trial_type":"feedback","trial_index":0,"trial_index_global":7,"time_elapsed":39121,"internal_chunk_id":"0-0.2-0"},{"prompt":"Press E if the figure is correct, and press I if the figure is incorrect.","correct_response":"incorrect","response":73,"trial_time":7834,"rt":7834,"response_choices":[69,73],"response_mappings":["correct","incorrect"],"rotation_speed":0.00087,"rotation_time":800,"object_specifier":[1,2,0,3],"initial_angle":0,"final_object_specifier":[1,0,2,3],"final_angle":0.696,"verb_supp_check":false,"consonant_correct_count":0,"verb_supp_consonants":[["w"],["c"],["y"],["h"]],"experiment_trial_type":"swap","practice_trial":true,"trial_type":"rotation","trial_index":0,"trial_index_global":8,"time_elapsed":47456,"internal_chunk_id":"0-0.2-0"},{"feedback":"Correct! The bars changed positions.","rt":939,"trial_type":"feedback","trial_index":0,"trial_index_global":9,"time_elapsed":48898,"internal_chunk_id":"0-0.2-0"},{"prompt":"Press E if the figure is correct, and press I if the figure is incorrect.","correct_response":"correct","response":69,"trial_time":10921,"rt":10921,"response_choices":[69,73],"response_mappings":["correct","incorrect"],"rotation_speed":0,"rotation_time":2400,"object_specifier":[3,2,1,0],"initial_angle":0.7,"final_object_specifier":[3,2,1,0],"final_angle":0.7,"verb_supp_check":true,"consonant_correct_count":4,"verb_supp_consonants":[["w"],["t"],["m"],["x"]],"experiment_trial_type":"correct","practice_trial":true,"trial_type":"rotation","trial_index":0,"trial_index_global":10,"time_elapsed":60320,"internal_chunk_id":"0-0.2-0"},{"feedback":"Correct! The bars on the object did not change positions.","rt":889,"trial_type":"feedback","trial_index":0,"trial_index_global":11,"time_elapsed":61712,"internal_chunk_id":"0-0.2-0"},{"prompt":"Press E if the figure is correct, and press I if the figure is incorrect.","correct_response":"incorrect","response":73,"trial_time":8935,"rt":8935,"response_choices":[69,73],"response_mappings":["correct","incorrect"],"rotation_speed":-0.00087,"rotation_time":2400,"object_specifier":[1,2,3,0],"initial_angle":0.2,"final_object_specifier":[1,2,3,0],"final_angle":-1.192,"verb_supp_check":false,"consonant_correct_count":0,"verb_supp_consonants":[["k"],["g"],["t"],["s"]],"experiment_trial_type":"rotat e","practice_trial":true,"trial_type":"rotation","trial_index":0,"trial_index_global":12,"time_elapsed":71149,"internal_chunk_id":"0-0.2-0"},{"feedback":"Thats right! The object was rotated an incorrect amount.","rt":1289,"trial_type":"feedback","trial_index":0,"trial_index_global":13,"time_elapsed":72939,"internal_chunk_id":"0-0.2-0"},{"instructions":"Great! We'll give you a few more trials to practice before you start the experiment. Click 'Continue' to begin the practice section.","rt":2603,"trial_type":"instructions","trial_index":0,"trial_index_global":14,"time_elapsed":76044,"internal_chunk_id":"0-0"},{"prompt":"Press E if the figure is correct, and press I if the figure is incorrect.","correct_response":"incorrect","response":73,"trial_time":7327,"rt":7327,"response_choices":[69,73],"response_mappings":["correct","incorrect"],"rotation_speed":0.00087,"rotation_time":800,"object_specifier":[1,0,2,3],"initial_angle":0.55,"final_object_specifier":[1,0,3,2],"final_angle":1.246,"verb_supp_check":false,"consonant_correct_count":0,"verb_supp_consonants":[["x"],["n"],["r"],["k"]],"experiment_trial_type":"swap","practice_trial":true,"trial_type":"rotation","trial_index":0,"trial_index_global":15,"time_elapsed":83873,"internal_chunk_id":"0-0.4-0"},{"prompt":"Press E if the figure is correct, and press I if the figure is incorrect.","correct_response":"correct","response":73,"trial_time":8837,"rt":8837,"response_choices":[69,73],"response_mappings":["correct","incorrect"],"rotation_speed":-0.00087,"rotation_time":2400,"object_specifier":[0,3,1,2],"initial_angle":0.11,"final_object_specifier":[0,3,1,2],"final_angle":-1.978,"verb_supp_check":false,"consonant_correct_count":0,"verb_supp_consonants":[["w"],["r"],["f"],["h"]],"experiment_trial_type":"correct","practice_trial":true,"trial_type":"rotation","trial_index":0,"trial_index_global":16,"time_elapsed":93211,"internal_chunk_id":"0-0.4-0"},{"prompt":"Press E if the figure is correct, and press I if the fig ure is i ncorrect.","correct_response":"incorrect","response":73,"trial_time":11271,"rt":11271,"response_choices":[69,73],"response_mappings":["correct","incorrect"],"rotation_speed":-0.00087,"rotation_time":1600,"object_specifier":[0,3,1,2],"initial_angle":0.4,"final_object_specifier":[0,3,1,2],"final_angle":-0.29599999999999993,"verb_supp_check":true,"consonant_correct_count":4,"verb_supp_consonants":[["t"],["d"],["w"],["x"]],"experiment_trial_type":"rotate","practice_trial":true,"trial_type":"rotation","trial_index":0,"trial_index_global":17,"time_elapsed":104984,"internal_chunk_id":"0-0.4-0"},{"prompt":"Press E if the figure is correct, and press I if the figure is incorrect.","correct_response":"correct","response":69,"trial_time":8763,"rt":8763,"response_choices":[69,73],"response_mappings":["correct","incorrect"],"rotation_speed":0,"rotation_time":2400,"object_specifier":[3,0,2,1],"initial_angle":-0.1,"final_object_specifier":[3,0,2,1],"final_angle":-0.1,"verb_supp_check":false,"consonant_correct_count":0,"verb_supp_consonants":[["d"],["c"],["f"],["r"]],"experiment_trial_type":"correct","practice_trial":true,"trial_type":"rotation","trial_index":0,"trial_index_global":18,"time_elapsed":114248,"internal_chunk_id":"0-0.4-0"},{"prompt":"Press E if the figure is correct, and press I if the figure is incorrect.","correct_response":"correct","response":73,"trial_time":7329,"rt":7329,"response_choices":[69,73],"response_mappings":["correct","incorrect"],"rotation_speed":0.00087,"rotation_time":800,"object_specifier":[2,0,3,1],"initial_angle":0.23,"final_object_specifier":[2,0,3,1],"final_angle":0.9259999999999999,"verb_supp_check":false,"consonant_correct_count":0,"verb_supp_consonants":[["n"],["t"],["s"],["l"]],"experiment_trial_type":"correct","practice_trial":true,"trial_type":"rotation","trial_index":0,"trial_index_global":19,"time_elapsed":122078,"internal_chunk_id":"0-0.4-0"},{"prompt":"Press E if the figure is correct, and press I if the figure is incorr ect.","correct_response":"incorrect","response":73,"trial_time":7666,"rt":7666,"response_choices":[69,73],"response_mappings":["correct","incorrect"],"rotation_speed":0.00087,"rotation_time":800,"object_specifier":[1,2,3,0],"initial_angle":0.62,"final_object_specifier":[1,2,3,0],"final_angle":2.708,"verb_supp_check":false,"consonant_correct_count":0,"verb_supp_consonants":[["d"],["r"],["p"],["q"]],"experiment_trial_type":"rotate","practice_trial":true,"trial_type":"rotation","trial_index":0,"trial_index_global":20,"time_elapsed":130246,"internal_chunk_id":"0-0.4-0"},{"prompt":"Press E if the figure is correct, and press I if the figure is incorrect.","correct_response":"incorrect","response":73,"trial_time":8205,"rt":8205,"response_choices":[69,73],"response_mappings":["correct","incorrect"],"rotation_speed":0,"rotation_time":1600,"object_specifier":[0,2,3,1],"initial_angle":-0.22,"final_object_specifier":[1,2,3,0],"final_angle":-0.22,"verb_supp_check":false,"consonant_correct_count":0,"verb_supp_consonants":[["x"],["h"],["f"],["n"]],"experiment_trial_type":"swap","practice_trial":true,"trial_type":"rotation","trial_index":0,"trial_index_global":21,"time_elapsed":138953,"internal_chunk_id":"0-0.4-0"},{"prompt":"Press E if the figure is correct, and press I if the figure is incorrect.","correct_response":"correct","response":73,"trial_time":12125,"rt":12125,"response_choices":[69,73],"response_mappings":["correct","incorrect"],"rotation_speed":0.00087,"rotation_time":2400,"object_specifier":[1,3,0,2],"initial_angle":-0.5,"final_object_specifier":[1,3,0,2],"final_angle":1.588,"verb_supp_check":true,"consonant_correct_count":4,"verb_supp_consonants":[["d"],["z"],["b"],["h"]],"experiment_trial_type":"correct","practice_trial":true,"trial_type":"rotation","trial_index":0,"trial_index_global":22,"time_elapsed":151582,"internal_chunk_id":"0-0.4-0"},{"instructions":"You've completed the practice section! Click 'Continue' to proceed.","rt":1182,"trial_type":"instructio ns","trial_index":0,"trial_index_global":23,"time_elapsed":153265,"internal_chunk_id":"0-0"},{"prompt":"Press E if the figure is correct, and press I if the figure is incorrect.","correct_response":"correct","response":69,"trial_time":8641,"rt":8641,"response_choices":[69,73],"response_mappings":["correct","incorrect"],"rotation_speed":0,"rotation_time":2400,"object_specifier":[[1],[3],[2],[0]],"initial_angle":1.3033276906126057,"final_object_specifier":[[1],[3],[2],[0]],"final_angle":1.3033276906126057,"verb_supp_check":false,"consonant_correct_count":0,"verb_supp_consonants":[["n"],["x"],["p"],["k"]],"experiment_trial_type":"correct","practice_trial":false,"trial_type":"rotation","trial_index":0,"trial_index_global":24,"time_elapsed":162409,"internal_chunk_id":"0-0.6-0"},{"prompt":"Press E if the figure is correct, and press I if the figure is incorrect.","correct_response":"correct","response":73,"trial_time":9016,"rt":9016,"response_choices":[69,73],"response_mappings":["correct ","incor rect"],"rotation_speed":-0.00087,"rotation_time":2400,"object_specifier":[[3],[1],[0],[2]],"initial_angle":3.0550849723004907,"final_object_specifier":[[3],[1],[0],[2]],"final_angle":0.9670849723004906,"verb_supp_check":false,"consonant_correct_count":0,"verb_supp_consonants":[["n"],["t"],["k"],["g"]],"experiment_trial_type":"correct","practice_trial":false,"trial_type":"rotation","trial_index":0,"trial_index_global":25,"time_elapsed":171927,"internal_chunk_id":"0-0.6-0"},{"prompt":"Press E if the figure is correct, and press I if the figure is incorrect.","correct_response":"incorrect","response":73,"trial_time":8657,"rt":8657,"response_choices":[69,73],"response_mappings":["correct","incorrect"],"rotation_speed":0.00087,"rotation_time":2400,"object_specifier":[[1],[0],[2],[3]],"initial_angle":1.1260161311601569,"final_object_specifier":[[1],[3],[2],[0]],"final_angle":3.214016131160157,"verb_supp_check":false,"consonant_correct_count":0,"verb_supp_consonants":[["h"],["b"],["m"],["f"]],"experiment_trial_type":"swap","practice_trial":false,"trial_type":"rotation","trial_index":0,"trial_index_global":26,"time_elapsed":181085,"internal_chunk_id":"0-0.6-0"},{"prompt":"Press E if the figure is correct, and press I if the figure is incorrect.","correct_response":"incorrect","response":69,"trial_time":7755,"rt":7755,"response_choices":[69,73],"response_mappings":["correct","incorrect"],"rotation_speed":0.00087,"rotation_time":1600,"object_specifier":[[3],[0],[2],[1]],"initial_angle":5.865771279295578,"final_object_specifier":[[3],[0],[2],[1]],"final_angle":7.953771279295578,"verb_supp_check":false,"consonant_correct_count":0,"verb_supp_consonants":[["y"],["q"],["r"],["v"]],"experiment_trial_type":"rotate","practice_trial":false,"trial_type":"rotation","trial_index":0,"trial_index_global":27,"time_elapsed":189342,"internal_chunk_id":"0-0.6-0"},{"prompt":"Press E if the figure is correct, and press I if the figure is incorrect.","correct_response":"correct","response":73,"trial_time":8689,"rt":8689,"response_choices":[69,73],"response_mappings":["correct","incorrect"],"rotation_speed":0.00087,"rotation_time":2400,"object_specifier":[[2],[3],[0],[1]],"initial_angle":4.808313588235353,"final_object_specifier":[[2],[3],[0],[1]],"final_angle":6.896313588235353,"verb_supp_check":false,"consonant_correct_count":0,"verb_supp_consonants":[["m"],["p"],["h"],["k"]],"experiment_trial_type":"correct","practice_trial":false,"trial_type":"rotation","trial_index":0,"trial_index_global":28,"time_elapsed":198534,"internal_chunk_id":"0-0.6-0"},{"prompt":"Press E if the figure is correct, and press I if the figure is incorrect.","correct_response":"incorrect","response":69,"trial_time":7351,"rt":7351,"response_choices":[69,73],"response_mappings":["correct","incorrect"],"rotation_speed":0.00087,"rotation_time":800,"object_specifier":[[2],[3],[0],[1]],"initial_angle":1.8049053968687854,"final_object_specifier":[[2],[3],[1],[0]],"final_angle":2.5009053968687853,"verb_supp_check":false,"consonant_correct_count":0,"verb_supp_consonants":[["q"],["h"],["x"],["c"]],"experiment_trial_type":"swap","practice_trial":false,"trial_type":"rotation","trial_index":0,"trial_index_global":29,"time_elapsed":206386,"internal_chunk_id":"0-0.6-0"},{"prompt":"Press E if the figure is correct, and press I if the figure is incorrect.","correct_response":"incorrect","response":69,"trial_time":8228,"rt":8228,"response_choices":[69,73],"response_mappings":["correct","incorrect"],"rotation_speed":-0.00087,"rotation_time":1600,"object_specifier":[[0],[3],[2],[1]],"initial_angle":2.715579814136483,"final_object_specifier":[[0],[3],[2],[1]],"final_angle":0.627579814136483,"verb_supp_check":false,"consonant_correct_count":0,"verb_supp_consonants":[["t"],["s"],["p"],["v"]],"experiment_trial_type":"rotate","practice_trial":false,"trial_type":"rotation","trial_index":0,"trial_index_global":30,"time_elapsed":215116,"internal_chunk_id":"0-0.6-0"},{"prompt":"Press E if the  figure  is correct, and press I if the figure is incorrect.","correct_response":"correct","response":69,"trial_time":12568,"rt":12568,"response_choices":[69,73],"response_mappings":["correct","incorrect"],"rotation_speed":-0.00087,"rotation_time":800,"object_specifier":[[1],[2],[3],[0]],"initial_angle":3.196021468699843,"final_object_specifier":[[1],[2],[3],[0]],"final_angle":2.5000214686998428,"verb_supp_check":true,"consonant_correct_count":3,"verb_supp_consonants":[["w"],["v"],["l"],["m"]],"experiment_trial_type":"correct","practice_trial":false,"trial_type":"rotation","trial_index":0,"trial_index_global":31,"time_elapsed":228186,"internal_chunk_id":"0-0.6-0"},{"prompt":"Press E if the figure is correct, and press I if the figure is incorrect.","correct_response":"incorrect","response":73,"trial_time":7893,"rt":7893,"response_choices":[69,73],"response_mappings":["correct","incorrect"],"rotation_speed":0.00087,"rotation_time":1600,"object_specifier":[[2],[3],[0],[1]],"initial_angle":0.5025782617619041,"final_object_specifier":[[1],[3],[0],[2]],"final_angle":1.894578261761904,"verb_supp_check":false,"consonant_correct_count":0,"verb_supp_consonants":[["f"],["r"],["g"],["b"]],"experiment_trial_type":"swap","practice_trial":false,"trial_type":"rotation","trial_index":0,"trial_index_global":32,"time_elapsed":236581,"internal_chunk_id":"0-0.6-0"},{"prompt":"Press E if the figure is correct, and press I if the figure is incorrect.","correct_response":"correct","response":73,"trial_time":8139,"rt":8139,"response_choices":[69,73],"response_mappings":["correct","incorrect"],"rotation_speed":-0.00087,"rotation_time":800,"object_specifier":[[3],[0],[2],[1]],"initial_angle":5.5230746804924005,"final_object_specifier":[[3],[0],[2],[1]],"final_angle":4.827074680492401,"verb_supp_check":false,"consonant_correct_count":0,"verb_supp_consonants":[["g"],["x"],["j"],["r"]],"experiment_trial_type":"correct","practice_trial":false,"trial_type":"rotation","trial_index":0,"trial_index_global":33,"time_elapsed":245221,"internal_chunk_id":"0-0.6-0"},{"prompt":"Press E if the figure is correct, and press I if the figure is incorrect.","correct_response":"incorrect","response":69,"trial_time":86221,"rt":86221,"response_choices":[69,73],"response_mappings":["correct","incorrect"],"rotation_speed":0.00087,"rotation_time":800,"object_specifier":[[1],[0],[2],[3]],"initial_angle":3.3831776944050143,"final_object_specifier":[[1],[0],[2],[3]],"final_angle":5.471177694405014,"verb_supp_check":true,"consonant_correct_count":0,"verb_supp_consonants":[["m"],["h"],["x"],["g"]],"experiment_trial_type":"rotate","practice_trial":false,"trial_type":"rotation","trial_index":0,"trial_index_global":34,"time_elapsed":331945,"internal_chunk_id":"0-0.6-0"},{"prompt":"Press E if the figure is correct, and press I if the figure is incorrect.","correct_response":"correct","response":73,"trial_time":19127,"rt":19127,"response_choices":[69,73],"response_mappings":["correct","incorrect"],"rotation_speed":0.00087,"rotation_time":1600,"object_specifier":[[0],[1],[2],[3]],"initial_angle":5.318419812847127,"final_object_specifier":[[0],[1],[2],[3]],"final_angle":6.710419812847126,"verb_supp_check":true,"consonant_correct_count":4,"verb_supp_consonants":[["v"],["k"],["j"],["g"]],"experiment_trial_type":"correct","practice_trial":false,"trial_type":"rotation","trial_index":0,"trial_index_global":35,"time_elapsed":351574,"internal_chunk_id":"0-0.6-0"},{"prompt":"Press E if the figure is correct, and press I if the figure is incorrect.","correct_response":"correct","response":69,"trial_time":10326,"rt":10326,"response_choices":[69,73],"response_mappings":["correct","incorrect"],"rotation_speed":0.00087,"rotation_time":1600,"object_specifier":[[3],[0],[1],[2]],"initial_angle":2.83652554229724,"final_object_specifier":[[3],[0],[1],[2]],"final_angle":4.228525542297239,"verb_supp_check":false,"consonant_correct_count":0,"verb_supp_consonants":[["j"],["x"],["c"],["l"]],"experiment_trial_type":"correct","practice_trial":false,"trial_type":"rotation","trial_index":0,"trial_index_global":36,"time_elapsed":362402,"internal_chunk_id":"0-0.6-0"},{"prompt":"Press E if the figure is correct, and press I if the figure is incorrect.","correct_response":"correct","response":73,"trial_time":8748,"rt":8748,"response_choices":[69,73],"response_mappings":["correct","incorrect"],"rotation_speed":-0.00087,"rotation_time":2400,"object_specifier":[[0],[2],[1],[3]],"initial_angle":2.4672056016564397,"final_object_specifier":[[0],[2],[1],[3]],"final_angle":0.3792056016564396,"verb_supp_check":false,"consonant_correct_count":0,"verb_supp_consonants":[["b"],["p"],["r"],["v"]],"experiment_trial_type":"correct","practice_trial":false,"trial_type":"rotation","trial_index":0,"trial_index_global":37,"time_elapsed":371650,"internal_chunk_id":"0-0.6-0"},{"prompt":"Press E if the figure is correct, and press I if the figure is incorrect.","correct_response":"correct","response":69,"trial_time":7193,"rt":7193,"response_choices":[69,73],"response_mappings":["correct","incorrect"],"rotation_speed":-0.00087,"rotation_time":1600,"object_specifier":[[1],[3],[2],[0]],"initial_angle":0.38144752566625273,"final_object_specifier":[[1],[3],[2],[0]],"final_angle":-1.010552474333747,"verb_supp_check":false,"consonant_correct_count":0,"verb_supp_consonants":[["g"],["b"],["h"],["m"]],"experiment_trial_type":"correct","practice_trial":false,"trial_type":"rotation","trial_index":0,"trial_index_global":38,"time_elapsed":379345,"internal_chunk_id":"0-0.6-0"},{"prompt":"Press E if the figure is correct, and press I if the figure is incorrect.","correct_response":"incorrect","response":69,"trial_time":19148,"rt":19148,"response_choices":[69,73],"response_mappings":["correct","incorrect"],"rotation_speed":-0.00087,"rotation_time":800,"object_specifier":[[1],[0],[3],[2]],"initial_angle":4.629507270291642,"final_object_specifier":[[1],[2],[3],[0]],"final_angle":3.933507270291642,"verb_supp_check":true,"consonant_correct_count":2,"verb_supp_consonants":[["w"],["v"],["f"],["p"]],"experiment_trial_type":"swap","practice_trial":false,"trial_type":"rotation","trial_index":0,"trial_index_global":39,"time_elapsed":398996,"internal_chunk_id":"0-0.6-0"},{"prompt":"Press E if the figure is correct, and press I if the figure is incorrect.","correct_response":"incorrect","response":73,"trial_time":8805,"rt":8805,"response_choices":[69,73],"response_mappings":["correct","incorrect"],"rotation_speed":0.00087,"rotation_time":2400,"object_specifier":[[1],[2],[0],[3]],"initial_angle":3.9351302327808657,"final_object_specifier":[[1],[2],[0],[3]],"final_angle":5.327130232780865,"verb_supp_check":false,"consonant_correct_count":0,"verb_supp_consonants":[["x"],["c"],["s"],["n"]],"experiment_trial_type":"rotate","practice_trial":false,"trial_type":"rotation","trial_index":0,"trial_index_global":40,"time_elapsed":408302,"internal_chunk_id":"0-0.6-0"},{"prompt":"Press E if the figure is co rrect, a nd press I if the figure is incorrect.","correct_response":"correct","response":69,"trial_time":9843,"rt":9843,"response_choices":[69,73],"response_mappings":["correct","incorrect"],"rotation_speed":0,"rotation_time":1600,"object_specifier":[[0],[1],[2],[3]],"initial_angle":3.666029666130692,"final_object_specifier":[[0],[1],[2],[3]],"final_angle":3.666029666130692,"verb_supp_check":true,"consonant_correct_count":4,"verb_supp_consonants":[["s"],["f"],["r"],["z"]],"experiment_trial_type":"correct","practice_trial":false,"trial_type":"rotation","trial_index":0,"trial_index_global":41,"time_elapsed":418646,"internal_chunk_id":"0-0.6-0"},{"prompt":"Press E if the figure is correct, and press I if the figure is incorrect.","correct_response":"incorrect","response":69,"trial_time":10321,"rt":10321,"response_choices":[69,73],"response_mappings":["correct","incorrect"],"rotation_speed":0,"rotation_time":1600,"object_specifier":[[2],[3],[1],[0]],"initial_angle":6.073493254172466,"final_object_specifier":[[3],[2],[1],[0]],"final_angle":6.073493254172466,"verb_supp_check":true,"consonant_correct_count":4,"verb_supp_consonants":[["c"],["r"],["g"],["k"]],"experiment_trial_type":"swap","practice_trial":false,"trial_type":"rotation","trial_index":0,"trial_index_global":42,"time_elapsed":429470,"internal_chunk_id":"0-0.6-0"},{"prompt":"Press E if the figure is correct, and press I if the figure is incorrect.","correct_response":"incorrect","response":73,"trial_time":7828,"rt":7828,"response_choices":[69,73],"response_mappings":["correct","incorrect"],"rotation_speed":0,"rotation_time":2400,"object_specifier":[[3],[2],[0],[1]],"initial_angle":1.264774390815777,"final_object_specifier":[[3],[0],[2],[1]],"final_angle":1.264774390815777,"verb_supp_check":false,"consonant_correct_count":0,"verb_supp_consonants":[["g"],["j"],["l"],["f"]],"experiment_trial_type":"swap","practice_trial":false,"trial_type":"rotation","trial_index":0,"trial_index_global":43,"time_elapsed":437800,"internal_chunk_id":"0-0.6-0"},{"prompt":"Press E if the figure is correct, and press I if the figure is incorrect.","correct_response":"correct","response":69,"trial_time":7914,"rt":7914,"response_choices":[69,73],"response_mappings":["correct","incorrect"],"rotation_speed":0,"rotation_time":2400,"object_specifier":[[0],[3],[2],[1]],"initial_angle":4.241619070768328,"final_object_specifier":[[0],[3],[2],[1]],"final_angle":4.241619070768328,"verb_supp_check":false,"consonant_correct_count":0,"verb_supp_consonants":[["v"],["r"],["k"],["l"]],"experiment_trial_type":"correct","practice_trial":false,"trial_type":"rotation","trial_index":0,"trial_index_global":44,"time_elapsed":446215,"internal_chunk_id":"0-0.6-0"},{"prompt":"Press E if the figure is correct, and press I if the figure is incorrect.","correct_response":"incorrect","response":69,"trial_time":11600,"rt":11600,"response_choices":[69,73],"response_mappings":["correct","incorrect"],"rotation_speed":0,"rotation_time":800,"object_specifier":[[3],[1],[0],[2]],"initial_angle":0.13283396808509662,"final_object_specifier":[[3],[1],[2],[0]],"final_angle":0.13283396808509662,"verb_supp_check":true,"consonant_correct_count":0,"verb_supp_consonants":[["b"],["v"],["r"],["m"]],"experiment_trial_type":"swap","practice_trial":false,"trial_type":"rotation","trial_index":0,"trial_index_global":45,"time_elapsed":458318,"internal_chunk_id":"0-0.6-0"},{"prompt":"Press E if the figure is correct, and press I if the figure is incorrect.","correct_response":"correct","response":73,"trial_time":7241,"rt":7241,"response_choices":[69,73],"response_mappings":["correct","incorrect"],"rotation_speed":0.00087,"rotation_time":800,"object_specifier":[[2],[1],[0],[3]],"initial_angle":2.5153459229626245,"final_object_specifier":[[2],[1],[0],[3]],"final_angle":3.211345922962624,"verb_supp_check":false,"consonant_correct_count":0,"verb_supp_consonants":[["c"],["h"],["n"],["v"]],"experiment_trial_type":"correct","practice_trial":false,"trial_type":"rotation","trial_index":0,"trial_index_global":46,"time_elapsed":466060,"internal_chunk_id":"0-0.6-0"},{"prompt":"Press E if the figure is correct, and press I if the figure is incorrect.","correct_response":"correct","response":69,"trial_time":6406,"rt":6406,"response_choices":[69,73],"response_mappings":["correct","incorrect"],"rotation_speed":0,"rotation_time":800,"object_specifier":[[1],[3],[2],[0]],"initial_angle":2.1441120407470464,"final_object_specifier":[[1],[3],[2],[0]],"final_angle":2.1441120407470464,"verb_supp_check":false,"consonant_correct_count":0,"verb_supp_consonants":[["h"],["t"],["g"],["f"]],"experiment_trial_type":"correct","practice_trial":false,"trial_type":"rotation","trial_index":0,"trial_index_global":47,"time_elapsed":472967,"internal_chunk_id":"0-0.6-0"},{"prompt":"Press E if the figure is correct, and press I if the figure is incorrect.","correct_response":"correct","response":73,"trial_time":9004,"rt":9004,"response_choices":[69,73],"response_mappings":["correct","incorrect"],"rotation_speed":0.00087,"rotation_time":2400,"object_specifier":[[2],[3],[0],[1]],"initial_angle":5.3912862628843925,"final_object_specifier":[[2],[3],[0],[1]],"final_angle":7.479286262884393,"verb_supp_check":false,"consonant_correct_count":0,"verb_supp_consonants":[["b"],["g"],["x"],["p"]],"experiment_trial_type":"correct","practice_trial":false,"trial_type":"rotation","trial_index":0,"trial_index_global":48,"time_elapsed":482473,"internal_chunk_id":"0-0.6-0"},{"prompt":"Press E if the figure is correct, and press I if the figure is incorrect.","correct_response":"correct","response":69,"trial_time":7746,"rt":7746,"response_choices":[69,73],"response_mappings":["correct","incorrect"],"rotation_speed":0,"rotation_time":1600,"object_specifier":[[1],[2],[0],[3]],"initial_angle":0.6269937170792957,"final_object_specifier":[[1],[2],[0],[3]],"final_angle":0.6269937170792957,"verb_supp_check":false,"consonant_correct_count":0,"verb_supp_consonants":[["f"],["y"],["z"],["l"]],"experiment_trial_type":"correct","practice_trial":false,"trial_type":"rotation","trial_index":0,"trial_index_global":49,"time_elapsed":490720,"internal_chunk_id":"0-0.6-0"},{"prompt":"Press E if the figure is correct, and press I if the figure is incorrect.","correct_response":"correct","response":69,"trial_time":8566,"rt":8566,"response_choices":[69,73],"response_mappings":["correct","incorrect"],"rotation_speed":-0.00087,"rotation_time":1600,"object_specifier":[[1],[2],[0],[3]],"initial_angle":1.666077202414386,"final_object_specifier":[[1],[2],[0],[3]],"final_angle":0.27407720241438605,"verb_supp_check":false,"consonant_correct_count":0,"verb_supp_consonants":[["w"],["g"],["s"],["j"]],"experiment_trial_type":"correct","practice_trial":false,"trial_type":"rotation","trial_index":0,"trial_index_global":50,"time_elapsed":499788,"internal_chunk_id":"0-0.6-0"},{"prompt":"Press E if the figure is correct, and press I if the figure is incorrect.","correct_response":"cor rect","response":69,"trial_time":6607,"rt":6607,"response_choices":[69,73],"response_mappings":["correct","incorrect"],"rotation_speed":0.00087,"rotation_time":800,"object_specifier":[[3],[0],[2],[1]],"initial_angle":5.997400063282777,"final_object_specifier":[[3],[0],[2],[1]],"final_angle":6.693400063282777,"verb_supp_check":false,"consonant_correct_count":0,"verb_supp_consonants":[["q"],["z"],["p"],["n"]],"experiment_trial_type":"correct","practice_trial":false,"trial_type":"rotation","trial_index":0,"trial_index_global":51,"time_elapsed":506898,"internal_chunk_id":"0-0.6-0"},{"prompt":"Press E if the figure is correct, and press I if the figure is incorrect.","correct_response":"incorrect","response":69,"trial_time":11484,"rt":11484,"response_choices":[69,73],"response_mappings":["correct","incorrect"],"rotation_speed":-0.00087,"rotation_time":2400,"object_specifier":[[1],[0],[3],[2]],"initial_angle":1.43392598632726,"final_object_specifier":[[1],[0],[2],[3]],"final_angle":-0.6540740136727401,"verb_supp_check":true,"consonant_correct_count":4,"verb_supp_consonants":[["y"],["p"],["f"],["s"]],"experiment_trial_type":"swap","practice_trial":false,"trial_type":"rotation","trial_index":0,"trial_index_global":52,"time_elapsed":518884,"internal_chunk_id":"0-0.6-0"},{"prompt":"Press E if the figure is correct, and press I if the figure is incorrect.","correct_response":"incorrect","response":73,"trial_time":10343,"rt":10343,"response_choices":[69,73],"response_mappings":["correct","incorrect"],"rotation_speed":-0.00087,"rotation_time":2400,"object_specifier":[[3],[1],[2],[0]],"initial_angle":4.868916065394637,"final_object_specifier":[[3],[1],[2],[0]],"final_angle":3.476916065394637,"verb_supp_check":true,"consonant_correct_count":4,"verb_supp_consonants":[["f"],["z"],["v"],["m"]],"experiment_trial_type":"rotate","practice_trial":false,"trial_type":"rotation","trial_index":0,"trial_index_global":53,"time_elapsed":529729,"internal_chunk_id":"0-0.6-0"},{"prompt":"Pre ss E if the figure is correct, and press I if the figure is incorrect.","correct_response":"incorrect","response":73,"trial_time":7447,"rt":7447,"response_choices":[69,73],"response_mappings":["correct","incorrect"],"rotation_speed":-0.00087,"rotation_time":1600,"object_specifier":[[1],[2],[0],[3]],"initial_angle":5.228635651490706,"final_object_specifier":[[1],[2],[3],[0]],"final_angle":3.8366356514907065,"verb_supp_check":false,"consonant_correct_count":0,"verb_supp_consonants":[["q"],["c"],["s"],["t"]],"experiment_trial_type":"swap","practice_trial":false,"trial_type":"rotation","trial_index":0,"trial_index_global":54,"time_elapsed":537678,"internal_chunk_id":"0-0.6-0"},{"prompt":"Press E if the figure is correct, and press I if the figure is incorrect.","correct_response":"incorrect","response":69,"trial_time":8965,"rt":8965,"response_choices":[69,73],"response_mappings":["correct","incorrect"],"rotation_speed":-0.00087,"rotation_time":800,"object_specifier":[[1],[3],[2],[0]],"initial_angle":2.2530847923795583,"final_object_specifier":[[1],[3],[2],[0]],"final_angle":0.8610847923795584,"verb_supp_check":true,"consonant_correct_count":4,"verb_supp_consonants":[["z"],["r"],["g"],["y"]],"experiment_trial_type":"rotate","practice_trial":false,"trial_type":"rotation","trial_index":0,"trial_index_global":55,"time_elapsed":547145,"internal_chunk_id":"0-0.6-0"},{"prompt":"Press E if the figure is correct, and press I if the figure is incorrect.","correct_response":"correct","response":69,"trial_time":12044,"rt":12044,"response_choices":[69,73],"response_mappings":["correct","incorrect"],"rotation_speed":0,"rotation_time":800,"object_specifier":[[3],[0],[1],[2]],"initial_angle":1.7216957093198746,"final_object_specifier":[[3],[0],[1],[2]],"final_angle":1.7216957093198746,"verb_supp_check":true,"consonant_correct_count":3,"verb_supp_consonants":[["f"],["b"],["c"],["g"]],"experiment_trial_type":"correct","practice_trial":false,"trial_type":"rotation","trial_index":0,"trial_index_global":56,"time_elapsed":559691,"internal_chunk_id":"0-0.6-0"},{"prompt":"Press E if the figure is correct, and press I if the figure is incorrect.","correct_response":"correct","response":69,"trial_time":8197,"rt":8197,"response_choices":[69,73],"response_mappings":["correct","incorrect"],"rotation_speed":-0.00087,"rotation_time":2400,"object_specifier":[[0],[3],[2],[1]],"initial_angle":1.6692314659164076,"final_object_specifier":[[0],[3],[2],[1]],"final_angle":-0.4187685340835925,"verb_supp_check":false,"consonant_correct_count":0,"verb_supp_consonants":[["q"],["z"],["d"],["s"]],"experiment_trial_type":"correct","practice_trial":false,"trial_type":"rotation","trial_index":0,"trial_index_global":57,"time_elapsed":568391,"internal_chunk_id":"0-0.7-0"},{"prompt":"Press E if the figure is correct, and press I if the figure is incorrect.","correct_response":"correct","response":73,"trial_time":8396,"rt":8396,"response_choices":[69,73],"response_mappings":["correct","incorr ect"],"rotation_speed":0.00087,"rotation_time":2400,"object_specifier":[[1],[2],[0],[3]],"initial_angle":1.7063352874623632,"final_object_specifier":[[1],[2],[0],[3]],"final_angle":3.7943352874623635,"verb_supp_check":false,"consonant_correct_count":0,"verb_supp_consonants":[["z"],["r"],["p"],["q"]],"experiment_trial_type":"correct","practice_trial":false,"trial_type":"rotation","trial_index":0,"trial_index_global":58,"time_elapsed":577289,"internal_chunk_id":"0-0.7-0"},{"prompt":"Press E if the figure is correct, and press I if the figure is incorrect.","correct_response":"incorrect","response":73,"trial_time":11297,"rt":11297,"response_choices":[69,73],"response_mappings":["correct","incorrect"],"rotation_speed":0.00087,"rotation_time":1600,"object_specifier":[[0],[2],[3],[1]],"initial_angle":6.145931320834416,"final_object_specifier":[[0],[2],[3],[1]],"final_angle":6.841931320834416,"verb_supp_check":true,"consonant_correct_count":0,"verb_supp_consonants":[["x"],["z"],["t"],["q"]],"experiment_trial_type":"rotate","practice_trial":false,"trial_type":"rotation","trial_index":0,"trial_index_global":59,"time_elapsed":589087,"internal_chunk_id":"0-0.7-0"},{"prompt":"Press E if the figure is correct, and press I if the figure is incorrect.","correct_response":"correct","response":69,"trial_time":7153,"rt":7153,"response_choices":[69,73],"response_mappings":["correct","incorrect"],"rotation_speed":0,"rotation_time":800,"object_specifier":[[1],[2],[3],[0]],"initial_angle":1.5881228066837594,"final_object_specifier":[[1],[2],[3],[0]],"final_angle":1.5881228066837594,"verb_supp_check":false,"consonant_correct_count":0,"verb_supp_consonants":[["c"],["m"],["p"],["s"]],"experiment_trial_type":"correct","practice_trial":false,"trial_type":"rotation","trial_index":0,"trial_index_global":60,"time_elapsed":596741,"internal_chunk_id":"0-0.7-0"},{"prompt":"Press E if the figure is correct, and press I if the figure is incorrect.","correct_response":"correct","response":69,"trial_time":8757,"rt":8757,"response_choices":[69,73],"response_mappings":["correct","incorrect"],"rotation_speed":0.00087,"rotation_time":2400,"object_specifier":[[0],[2],[3],[1]],"initial_angle":2.413503254109537,"final_object_specifier":[[0],[2],[3],[1]],"final_angle":4.501503254109537,"verb_supp_check":false,"consonant_correct_count":0,"verb_supp_consonants":[["f"],["q"],["m"],["g"]],"experiment_trial_type":"correct","practice_trial":false,"trial_type":"rotation","trial_index":0,"trial_index_global":61,"time_elapsed":605999,"internal_chunk_id":"0-0.7-0"},{"prompt":"Press E if the figure is correct, and press I if the figure is incorrect.","correct_response":"incorrect","response":73,"trial_time":7104,"rt":7104,"response_choices":[69,73],"response_mappings":["correct","incorrect"],"rotation_speed":-0.00087,"rotation_time":800,"object_specifier":[[2],[1],[3],[0]],"initial_angle":3.4495484180520597,"final_object_specifier":[[2],[1],[3],[0]],"final_angle":2.05754841805206,"verb_supp_check":false,"consonant_correct_count":0,"verb_supp_consonants":[["n"],["g"],["v"],["p"]],"experiment_trial_type":"rotate","practice_trial":false,"trial_type":"rotation","trial_index":0,"trial_index_global":62,"time_elapsed":613605,"internal_chunk_id":"0-0.7-0"},{"prompt":"Press E if the figure is correct, and press I if the figure is incorrect.","correct_response":"correct","response":69,"trial_time":7677,"rt":7677,"response_choices":[69,73],"response_mappings":["correct","incorrect"],"rotation_speed":0.00087,"rotation_time":1600,"object_specifier":[[1],[2],[3],[0]],"initial_angle":3.9376935388214225,"final_object_specifier":[[1],[2],[3],[0]],"final_angle":5.329693538821422,"verb_supp_check":false,"consonant_correct_count":0,"verb_supp_consonants":[["q"],["g"],["t"],["h"]],"experiment_trial_type":"correct","practice_trial":false,"trial_type":"rotation","trial_index":0,"trial_index_global":63,"time_elapsed":621784,"internal_chunk_id":"0-0.7-0"},{"prompt":"Press E if the figur e is cor rect, and press I if the figure is incorrect.","correct_response":"correct","response":69,"trial_time":9877,"rt":9877,"response_choices":[69,73],"response_mappings":["correct","incorrect"],"rotation_speed":-0.00087,"rotation_time":800,"object_specifier":[[2],[1],[3],[0]],"initial_angle":2.746857140185514,"final_object_specifier":[[2],[1],[3],[0]],"final_angle":2.0508571401855145,"verb_supp_check":true,"consonant_correct_count":4,"verb_supp_consonants":[["x"],["n"],["k"],["l"]],"experiment_trial_type":"correct","practice_trial":false,"trial_type":"rotation","trial_index":0,"trial_index_global":64,"time_elapsed":632162,"internal_chunk_id":"0-0.7-0"},{"prompt":"Press E if the figure is correct, and press I if the figure is incorrect.","correct_response":"correct","response":69,"trial_time":11671,"rt":11671,"response_choices":[69,73],"response_mappings":["correct","incorrect"],"rotation_speed":-0.00087,"rotation_time":2400,"object_specifier":[[2],[0],[1],[3]],"initial_angle":3.9378810234766255,"final_object_specifier":[[2],[0],[1],[3]],"final_angle":1.8498810234766254,"verb_supp_check":true,"consonant_correct_count":4,"verb_supp_consonants":[["r"],["x"],["k"],["g"]],"experiment_trial_type":"correct","practice_trial":false,"trial_type":"rotation","trial_index":0,"trial_index_global":65,"time_elapsed":644334,"internal_chunk_id":"0-0.7-0"},{"prompt":"Press E if the figure is correct, and press I if the figure is incorrect.","correct_response":"incorrect","response":73,"trial_time":8740,"rt":8740,"response_choices":[69,73],"response_mappings":["correct","incorrect"],"rotation_speed":0,"rotation_time":2400,"object_specifier":[[0],[2],[3],[1]],"initial_angle":4.124737843978939,"final_object_specifier":[[3],[2],[0],[1]],"final_angle":4.124737843978939,"verb_supp_check":false,"consonant_correct_count":0,"verb_supp_consonants":[["k"],["v"],["n"],["d"]],"experiment_trial_type":"swap","practice_trial":false,"trial_type":"rotation","trial_index":0,"trial_index_global":66,"time_elapsed":653576,"internal_chunk_id":"0-0.7-0"},{"prompt":"Press E if the figure is correct, and press I if the figure is incorrect.","correct_response":"incorrect","response":69,"trial_time":6834,"rt":6834,"response_choices":[69,73],"response_mappings":["correct","incorrect"],"rotation_speed":0.00087,"rotation_time":800,"object_specifier":[[1],[3],[2],[0]],"initial_angle":3.0178819005403654,"final_object_specifier":[[2],[3],[1],[0]],"final_angle":3.7138819005403656,"verb_supp_check":false,"consonant_correct_count":0,"verb_supp_consonants":[["q"],["z"],["w"],["l"]],"experiment_trial_type":"swap","practice_trial":false,"trial_type":"rotation","trial_index":0,"trial_index_global":67,"time_elapsed":660911,"internal_chunk_id":"0-0.7-0"},{"prompt":"Press E if the figure is correct, and press I if the figure is incorrect.","correct_response":"correct","response":73,"trial_time":10101,"rt":10101,"response_choices":[69,73],"response_mappings":["correct","incorrect"],"rotation_speed":0.00087,"rotation_time":1600,"object_specifier":[[0],[1],[3],[2]],"initial_angle":1.2768020790172685,"final_object_specifier":[[0],[1],[3],[2]],"final_angle":2.6688020790172686,"verb_supp_check":true,"consonant_correct_count":4,"verb_supp_consonants":[["w"],["z"],["j"],["g"]],"experiment_trial_type":"correct","practice_trial":false,"trial_type":"rotation","trial_index":0,"trial_index_global":68,"time_elapsed":671515,"internal_chunk_id":"0-0.7-0"},{"prompt":"Press E if the figure is correct, and press I if the figure is incorrect.","correct_response":"correct","response":69,"trial_time":6770,"rt":6770,"response_choices":[69,73],"response_mappings":["correct","incorrect"],"rotation_speed":0.00087,"rotation_time":800,"object_specifier":[[1],[0],[3],[2]],"initial_angle":3.74401844921369,"final_object_specifier":[[1],[0],[3],[2]],"final_angle":4.44001844921369,"verb_supp_check":false,"consonant_correct_count":0,"verb_supp_consonants":[["t"],["f"],["m"],["v"]],"experiment_trial_type":"c orrect","practice_trial":false,"trial_type":"rotation","trial_index":0,"trial_index_global":69,"time_elapsed":678787,"internal_chunk_id":"0-0.7-0"},{"prompt":"Press E if the figure is correct, and press I if the figure is incorrect.","correct_response":"incorrect","response":69,"trial_time":9033,"rt":9033,"response_choices":[69,73],"response_mappings":["correct","incorrect"],"rotation_speed":0.00087,"rotation_time":800,"object_specifier":[[2],[0],[1],[3]],"initial_angle":5.368227764211083,"final_object_specifier":[[2],[0],[1],[3]],"final_angle":7.456227764211083,"verb_supp_check":true,"consonant_correct_count":4,"verb_supp_consonants":[["y"],["z"],["r"],["v"]],"experiment_trial_type":"rotate","practice_trial":false,"trial_type":"rotation","trial_index":0,"trial_index_global":70,"time_elapsed":688322,"internal_chunk_id":"0-0.7-0"},{"prompt":"Press E if the figure is correct, and press I if the figure is incorrect.","correct_response":"correct","response":73,"trial_time":12539,"rt":12539,"response_choices":[69,73],"response_mappings":["correct","incorrect"],"rotation_speed":-0.00087,"rotation_time":1600,"object_specifier":[[3],[1],[2],[0]],"initial_angle":5.538565659010978,"final_object_specifier":[[3],[1],[2],[0]],"final_angle":4.146565659010978,"verb_supp_check":true,"consonant_correct_count":0,"verb_supp_consonants":[["j"],["r"],["y"],["n"]],"experiment_trial_type":"correct","practice_trial":false,"trial_type":"rotation","trial_index":0,"trial_index_global":71,"time_elapsed":701363,"internal_chunk_id":"0-0.7-0"},{"prompt":"Press E if the figure is correct, and press I if the figure is incorrect.","correct_response":"incorrect","response":69,"trial_time":7995,"rt":7995,"response_choices":[69,73],"response_mappings":["correct","incorrect"],"rotation_speed":0,"rotation_time":800,"object_specifier":[[1],[0],[3],[2]],"initial_angle":1.2309007260359588,"final_object_specifier":[[2],[0],[3],[1]],"final_angle":1.2309007260359588,"verb_supp_check":false,"consonant_correct_count":0,"verb_supp_consonants":[["s"],["p"],["x"],["d"]],"experiment_trial_type":"swap","practice_trial":false,"trial_type":"rotation","trial_index":0,"trial_index_global":72,"time_elapsed":709860,"internal_chunk_id":"0-0.7-0"},{"prompt":"Press E if the figure is correct, and press I if the figure is incorrect.","correct_response":"incorrect","response":73,"trial_time":8319,"rt":8319,"response_choices":[69,73],"response_mappings":["correct","incorrect"],"rotation_speed":0.00087,"rotation_time":1600,"object_specifier":[[1],[2],[0],[3]],"initial_angle":5.82273501626248,"final_object_specifier":[[2],[1],[0],[3]],"final_angle":7.21473501626248,"verb_supp_check":false,"consonant_correct_count":0,"verb_supp_consonants":[["t"],["g"],["f"],["q"]],"experiment_trial_type":"swap","practice_trial":false,"trial_type":"rotation","trial_index":0,"trial_index_global":73,"time_elapsed":718680,"internal_chunk_id":"0-0.7-0"},{"prompt":"Press E if the figure is correct, and press I if the figure  is incor rect.","correct_response":"correct","response":69,"trial_time":8307,"rt":8307,"response_choices":[69,73],"response_mappings":["correct","incorrect"],"rotation_speed":0,"rotation_time":2400,"object_specifier":[[2],[3],[0],[1]],"initial_angle":4.706615764364212,"final_object_specifier":[[2],[3],[0],[1]],"final_angle":4.706615764364212,"verb_supp_check":false,"consonant_correct_count":0,"verb_supp_consonants":[["m"],["j"],["b"],["w"]],"experiment_trial_type":"correct","practice_trial":false,"trial_type":"rotation","trial_index":0,"trial_index_global":74,"time_elapsed":727489,"internal_chunk_id":"0-0.7-0"},{"prompt":"Press E if the figure is correct, and press I if the figure is incorrect.","correct_response":"incorrect","response":73,"trial_time":8486,"rt":8486,"response_choices":[69,73],"response_mappings":["correct","incorrect"],"rotation_speed":0.00087,"rotation_time":2400,"object_specifier":[[1],[0],[3],[2]],"initial_angle":5.926537328251141,"final_object_specifier":[[1],[3],[0],[2]],"final_angle":8.01453732825114,"verb_supp_check":false,"consonant_correct_count":0,"verb_supp_consonants":[["b"],["j"],["d"],["g"]],"experiment_trial_type":"swap","practice_trial":false,"trial_type":"rotation","trial_index":0,"trial_index_global":75,"time_elapsed":736477,"internal_chunk_id":"0-0.7-0"},{"prompt":"Press E if the figure is correct, and press I if the figure is incorrect.","correct_response":"incorrect","response":73,"trial_time":8375,"rt":8375,"response_choices":[69,73],"response_mappings":["correct","incorrect"],"rotation_speed":-0.00087,"rotation_time":2400,"object_specifier":[[2],[0],[1],[3]],"initial_angle":5.217854862496144,"final_object_specifier":[[2],[3],[1],[0]],"final_angle":3.1298548624961438,"verb_supp_check":false,"consonant_correct_count":0,"verb_supp_consonants":[["r"],["d"],["n"],["k"]],"experiment_trial_type":"swap","practice_trial":false,"trial_type":"rotation","trial_index":0,"trial_index_global":76,"time_elapsed":745354,"internal_chunk_id":"0-0.7 -0"},{"prompt":"Press E if the figure is correct, and press I if the figure is incorrect.","correct_response":"correct","response":69,"trial_time":6935,"rt":6935,"response_choices":[69,73],"response_mappings":["correct","incorrect"],"rotation_speed":0,"rotation_time":1600,"object_specifier":[[0],[1],[2],[3]],"initial_angle":0.9279055909695323,"final_object_specifier":[[0],[1],[2],[3]],"final_angle":0.9279055909695323,"verb_supp_check":false,"consonant_correct_count":0,"verb_supp_consonants":[["x"],["n"],["g"],["k"]],"experiment_trial_type":"correct","practice_trial":false,"trial_type":"rotation","trial_index":0,"trial_index_global":77,"time_elapsed":752791,"internal_chunk_id":"0-0.7-0"},{"prompt":"Press E if the figure is correct, and press I if the figure is incorrect.","correct_response":"correct","response":69,"trial_time":6417,"rt":6417,"response_choices":[69,73],"response_mappings":["correct","incorrect"],"rotation_speed":-0.00087,"rotation_time":800,"object_specifier":[[1],[3],[0],[2]],"initial_angle":2.759464392642469,"final_object_specifier":[[1],[3],[0],[2]],"final_angle":2.0634643926424694,"verb_supp_check":false,"consonant_correct_count":0,"verb_supp_consonants":[["w"],["f"],["d"],["h"]],"experiment_trial_type":"correct","practice_trial":false,"trial_type":"rotation","trial_index":0,"trial_index_global":78,"time_elapsed":759709,"internal_chunk_id":"0-0.7-0"},{"prompt":"Press E if the figure is correct, and press I if the figure is incorrect.","correct_response":"incorrect","response":73,"trial_time":9315,"rt":9315,"response_choices":[69,73],"response_mappings":["correct","incorrect"],"rotation_speed":0,"rotation_time":1600,"object_specifier":[[0],[3],[2],[1]],"initial_angle":2.7914283919570555,"final_object_specifier":[[1],[3],[2],[0]],"final_angle":2.7914283919570555,"verb_supp_check":true,"consonant_correct_count":4,"verb_supp_consonants":[["k"],["c"],["x"],["d"]],"experiment_trial_type":"swap","practice_trial":false,"trial_type":"rotation ","trial_index":0,"trial_index_global":79,"time_elapsed":769525,"internal_chunk_id":"0-0.7-0"},{"prompt":"Press E if the figure is correct, and press I if the figure is incorrect.","correct_response":"incorrect","response":73,"trial_time":7064,"rt":7064,"response_choices":[69,73],"response_mappings":["correct","incorrect"],"rotation_speed":-0.00087,"rotation_time":1600,"object_specifier":[[3],[0],[1],[2]],"initial_angle":3.0630377826526782,"final_object_specifier":[[3],[0],[1],[2]],"final_angle":0.9750377826526782,"verb_supp_check":false,"consonant_correct_count":0,"verb_supp_consonants":[["d"],["b"],["p"],["g"]],"experiment_trial_type":"rotate","practice_trial":false,"trial_type":"rotation","trial_index":0,"trial_index_global":80,"time_elapsed":777091,"internal_chunk_id":"0-0.7-0"},{"prompt":"Press E if the figure is correct, and press I if the figure is incorrect.","correct_response":"incorrect","response":73,"trial_time":6708,"rt":6708,"response_choices":[69,73],"response_mappings":["cor rect","incorrect"],"rotation_speed":-0.00087,"rotation_time":800,"object_specifier":[[1],[3],[0],[2]],"initial_angle":3.744987633904122,"final_object_specifier":[[1],[0],[3],[2]],"final_angle":3.0489876339041224,"verb_supp_check":false,"consonant_correct_count":0,"verb_supp_consonants":[["v"],["d"],["q"],["f"]],"experiment_trial_type":"swap","practice_trial":false,"trial_type":"rotation","trial_index":0,"trial_index_global":81,"time_elapsed":784302,"internal_chunk_id":"0-0.7-0"},{"prompt":"Press E if the figure is correct, and press I if the figure is incorrect.","correct_response":"correct","response":73,"trial_time":12782,"rt":12782,"response_choices":[69,73],"response_mappings":["correct","incorrect"],"rotation_speed":0.00087,"rotation_time":800,"object_specifier":[[0],[2],[1],[3]],"initial_angle":5.091577683001896,"final_object_specifier":[[0],[2],[1],[3]],"final_angle":5.787577683001896,"verb_supp_check":true,"consonant_correct_count":2,"verb_supp_consonants":[["y"],["j"],["b"],["p"]],"experiment_trial_type":"correct","practice_trial":false,"trial_type":"rotation","trial_index":0,"trial_index_global":82,"time_elapsed":797585,"internal_chunk_id":"0-0.7-0"},{"prompt":"Press E if the figure is correct, and press I if the figure is incorrect.","correct_response":"incorrect","response":69,"trial_time":10577,"rt":10577,"response_choices":[69,73],"response_mappings":["correct","incorrect"],"rotation_speed":-0.00087,"rotation_time":2400,"object_specifier":[[2],[1],[0],[3]],"initial_angle":2.7513867441759876,"final_object_specifier":[[2],[1],[0],[3]],"final_angle":2.055386744175988,"verb_supp_check":true,"consonant_correct_count":4,"verb_supp_consonants":[["q"],["v"],["f"],["t"]],"experiment_trial_type":"rotate","practice_trial":false,"trial_type":"rotation","trial_index":0,"trial_index_global":83,"time_elapsed":808664,"internal_chunk_id":"0-0.7-0"},{"prompt":"Press E if the figure is correct, and press I if the figure is incorrect.","correct_response":"co rrect","response":73,"trial_time":9235,"rt":9235,"response_choices":[69,73],"response_mappings":["correct","incorrect"],"rotation_speed":0,"rotation_time":2400,"object_specifier":[[1],[3],[0],[2]],"initial_angle":5.496900504244328,"final_object_specifier":[[1],[3],[0],[2]],"final_angle":5.496900504244328,"verb_supp_check":false,"consonant_correct_count":0,"verb_supp_consonants":[["w"],["q"],["v"],["p"]],"experiment_trial_type":"correct","practice_trial":false,"trial_type":"rotation","trial_index":0,"trial_index_global":84,"time_elapsed":818401,"internal_chunk_id":"0-0.7-0"},{"prompt":"Press E if the figure is correct, and press I if the figure is incorrect.","correct_response":"correct","response":69,"trial_time":7440,"rt":7440,"response_choices":[69,73],"response_mappings":["correct","incorrect"],"rotation_speed":0,"rotation_time":1600,"object_specifier":[[3],[0],[1],[2]],"initial_angle":0.6067915454749017,"final_object_specifier":[[3],[0],[1],[2]],"final_angle":0.6067915454749017,"verb_supp_check":false,"consonant_correct_count":0,"verb_supp_consonants":[["n"],["v"],["b"],["h"]],"experiment_trial_type":"correct","practice_trial":false,"trial_type":"rotation","trial_index":0,"trial_index_global":85,"time_elapsed":826343,"internal_chunk_id":"0-0.7-0"},{"prompt":"Press E if the figure is correct, and press I if the figure is incorrect.","correct_response":"correct","response":73,"trial_time":9651,"rt":9651,"response_choices":[69,73],"response_mappings":["correct","incorrect"],"rotation_speed":-0.00087,"rotation_time":1600,"object_specifier":[[2],[3],[1],[0]],"initial_angle":1.1760733388952125,"final_object_specifier":[[2],[3],[1],[0]],"final_angle":-0.21592666110478742,"verb_supp_check":true,"consonant_correct_count":4,"verb_supp_consonants":[["j"],["w"],["q"],["r"]],"experiment_trial_type":"correct","practice_trial":false,"trial_type":"rotation","trial_index":0,"trial_index_global":86,"time_elapsed":836497,"internal_chunk_id":"0-0.7-0"},{"prompt":"Press E if t he figur e is correct, and press I if the figure is incorrect.","correct_response":"correct","response":73,"trial_time":13499,"rt":13499,"response_choices":[69,73],"response_mappings":["correct","incorrect"],"rotation_speed":0,"rotation_time":800,"object_specifier":[[3],[0],[1],[2]],"initial_angle":5.809997035983043,"final_object_specifier":[[3],[0],[1],[2]],"final_angle":5.809997035983043,"verb_supp_check":false,"consonant_correct_count":0,"verb_supp_consonants":[["n"],["p"],["f"],["r"]],"experiment_trial_type":"correct","practice_trial":false,"trial_type":"rotation","trial_index":0,"trial_index_global":87,"time_elapsed":850497,"internal_chunk_id":"0-0.7-0"},{"prompt":"Press E if the figure is correct, and press I if the figure is incorrect.","correct_response":"incorrect","response":69,"trial_time":7857,"rt":7857,"response_choices":[69,73],"response_mappings":["correct","incorrect"],"rotation_speed":-0.00087,"rotation_time":1600,"object_specifier":[[2],[0],[3],[1]],"initial_angle":5.659971689956622,"final_object_specifier":[[0],[2],[3],[1]],"final_angle":4.267971689956623,"verb_supp_check":false,"consonant_correct_count":0,"verb_supp_consonants":[["l"],["d"],["k"],["n"]],"experiment_trial_type":"swap","practice_trial":false,"trial_type":"rotation","trial_index":0,"trial_index_global":88,"time_elapsed":858856,"internal_chunk_id":"0-0.7-0"},{"prompt":"Press E if the figure is correct, and press I if the figure is incorrect.","correct_response":"incorrect","response":73,"trial_time":8589,"rt":8589,"response_choices":[69,73],"response_mappings":["correct","incorrect"],"rotation_speed":0.00087,"rotation_time":2400,"object_specifier":[[3],[0],[2],[1]],"initial_angle":1.6891369094580295,"final_object_specifier":[[3],[0],[2],[1]],"final_angle":3.0811369094580296,"verb_supp_check":false,"consonant_correct_count":0,"verb_supp_consonants":[["s"],["t"],["b"],["m"]],"experiment_trial_type":"rotate","practice_trial":false,"trial_type":"rotation","trial_index":0,"trial_index_global":89,"time_elapsed":867947,"internal_chunk_id":"0-0.7-0"},{"instructions":"Thanks for participating. We would like to ask you some final questions. Please press \"Continue\" to continue.","rt":1523,"trial_type":"instructions","trial_index":0,"trial_index_global":90,"time_elapsed":869973,"internal_chunk_id":"0-0.8-0"},{"question":"What is/are your native language(s)? (The languages spoken in your household when you were a child.)","response_type":"free","response_choices":[],"correct_response":"","response":"English","rt":2980,"trial_type":"question","trial_index":0,"trial_index_global":91,"time_elapsed":872954,"internal_chunk_id":"0-0.8-0"},{"question":"What is your gender?","response_type":"multi","response_choices":["female","male","other"],"correct_response":"","response":"male","rt":1573,"trial_type":"question","trial_index":0,"trial_index_global":92,"time_elapsed":874529,"internal_chunk_id":"0-0.8-0"},{"question":"How old are you?","response_type":"free","response_choices":[],"correct_response":"","response":"25","rt":1225,"trial_type":"question","trial_index":0,"trial_index_global":93,"time_elapsed":875755,"internal_chunk_id":"0-0.8-0"},{"question":"What is your race/ethnicity?","response_type":"multi","response_choices":["Asian or Pacific Islander","Black or African American","Hispanic/Latino","White","Other/Decline to state"],"correct_response":"","response":"Asian or Pacific Islander","rt":2418,"trial_type":"question","trial_index":0,"trial_index_global":94,"time_elapsed":878174,"internal_chunk_id":"0-0.8-0"},{"question":"What is your level of education?","response_type":"multi","response_choices":["Did not graduate high school","High school diploma","Some college, no degree","Associates Degree","Bachelors Degree","Some graduate school, no degree","Masters Degree","Doctorate, M.D., etc."],"correct_response":"","response":"Bachelors Degree","rt":12182,"trial_type":"question","trial_index":0,"trial_index_global":95,"time_elapsed":890358,"internal_chunk_id":"0-0.8-0"},{"question":"Do you have any comments on this HIT?","response_type":"free","response_choices":[],"correct_response":"","response":"No","rt":3577,"trial_type":"question","trial_index":0,"trial_index_global":96,"time_elapsed":893935,"internal_chunk_id":"0-0.8-0"}]